timestmp,smpleCnt,grnCnt,led2,led3,grn2Cnt,irCnt,redCnt,accelX,accelY,accelZ,hr,rr,rrsecure,spo2
11:36:38.044973,0,140233,25483,22499,139434,106617,106662,-0.306,-0.978,0.068,60.0,0.0,0,0.0
11:36:38.051922,1,237574,25437,22514,231990,237328,237371,-0.472,-1.025,0.020,60.0,0.0,0,0.0
11:36:38.059901,2,207803,25414,22542,200002,368437,368517,-0.407,-1.087,-0.020,60.0,0.0,0,0.0
11:36:38.067880,3,184741,25367,22548,179699,493570,493624,-0.260,-1.110,0.058,60.0,0.0,0,0.0
11:36:38.074895,4,173810,25371,22574,169280,524031,524031,-0.493,-0.922,-0.014,60.0,0.0,0,0.0
11:36:38.081843,5,170231,25469,22687,166097,524031,524031,-0.470,-0.809,0.143,60.0,0.0,0,0.0
11:36:38.089072,6,170204,25559,22818,166167,524031,524031,-0.423,-0.855,-0.064,60.0,0.0,0,0.0
11:36:38.096055,7,170260,25678,22909,166381,524031,524031,-0.417,-0.696,0.184,60.0,0.0,0,0.0
11:36:38.243432,8,170310,25741,22872,166780,524031,524031,-0.593,-0.810,0.126,60.0,0.0,0,0.0
11:36:38.250369,9,170417,25528,22557,166692,524031,524031,-0.783,-1.071,-0.034,60.0,0.0,0,0.0
11:36:38.257084,10,170527,25330,22350,166502,524031,524031,-0.814,-0.911,0.383,60.0,0.0,0,0.0
11:36:38.264529,11,170513,25290,22367,166700,524031,524031,-0.553,-1.053,-0.017,60.0,0.0,0,0.0
11:36:38.271413,12,170346,50422,44151,166637,524031,524031,-0.772,-0.744,0.191,60.0,0.0,0,0.0
11:36:38.441422,13,170052,50240,44087,166313,524031,524031,-0.655,-0.933,0.083,60.0,0.0,0,0.0
11:36:38.449401,14,169843,49937,43957,165913,524031,524031,-0.535,-0.674,0.356,60.0,0.0,0,0.0
11:36:38.456974,15,169575,49879,44024,165556,524031,524031,-0.487,-0.889,0.024,60.0,0.0,0,0.0
11:36:38.463609,16,169336,49770,43960,164982,524031,524031,-0.712,-0.925,-0.024,60.0,0.0,0,0.0
11:36:38.470594,17,169194,49778,43944,164487,524031,524031,-0.526,-0.915,0.281,60.0,0.0,0,0.0
11:36:38.647100,18,169125,49706,43873,164020,524031,524031,-0.539,-1.007,0.366,60.0,0.0,0,0.0
11:36:38.654266,19,169209,49520,43787,163353,524031,524031,-0.367,-1.125,0.033,60.0,0.0,0,0.0
11:36:38.661372,20,169179,49443,43763,162395,524031,524031,-0.526,-0.895,0.028,60.0,0.0,0,0.0
11:36:38.668369,21,169053,49892,44167,162104,524031,524031,-0.512,-0.772,0.065,60.0,0.0,0,0.0
11:36:38.675353,22,168939,50264,44454,162675,524031,524031,-0.239,-0.829,0.118,60.0,0.0,0,0.0
11:36:38.849059,23,168831,50454,44599,162896,524031,524031,-0.266,-0.883,0.128,60.0,0.0,0,0.0
11:36:38.856112,24,168853,97048,84334,163004,524031,524031,-0.241,-1.034,-0.036,60.0,0.0,0,0.0
11:36:38.862956,25,169009,99496,88037,162860,524031,524031,-0.545,-1.003,0.092,60.0,0.0,0,0.0
11:36:38.869937,26,169296,99794,88470,162930,524031,524031,-0.400,-1.155,0.114,60.0,0.0,0,0.0
11:36:38.876918,27,169660,99946,88689,163603,524031,524031,-0.290,-1.115,-0.015,60.0,0.0,0,0.0
11:36:39.043283,28,170050,100100,88745,164435,524031,524031,-0.300,-1.029,0.034,60.0,0.0,0,0.0
11:36:39.050264,29,170504,100040,88666,165092,524031,524031,-0.286,-0.898,0.125,60.0,0.0,0,0.0
11:36:39.057246,30,170720,99892,88627,165445,524031,524031,-0.304,-0.798,0.191,60.0,0.0,0,0.0
11:36:39.065341,31,170780,99840,88707,165709,524031,524031,-0.208,-0.870,0.057,60.0,0.0,0,0.0
11:36:39.071325,32,170771,99966,88909,165793,524031,524031,-0.158,-0.901,0.025,60.0,0.0,0,0.0
11:36:39.244916,33,170739,100111,89113,165819,524031,524031,-0.167,-0.972,0.018,60.0,0.0,0,0.0
11:36:39.251859,34,170772,100372,89348,166019,524031,524031,-0.460,-0.988,0.040,60.0,0.0,0,0.0
11:36:39.258112,35,171117,100580,89622,166698,524031,524031,-0.395,-1.153,0.068,60.0,0.0,0,0.0
11:36:39.265952,36,171513,103159,92137,167222,524031,524031,-0.269,-1.105,0.205,60.0,0.0,0,0.0
11:36:39.273261,37,171791,103112,92200,167612,524031,524031,-0.404,-0.954,0.183,60.0,0.0,0,0.0
11:36:39.442178,38,172200,103169,92288,168298,524031,524031,-0.531,-0.797,0.110,60.0,0.0,0,0.0
11:36:39.449838,39,172547,102932,92207,168895,524031,524031,-0.508,-0.821,0.029,60.0,0.0,0,0.0
11:36:39.456545,40,172769,102409,91890,169309,524031,524031,-0.346,-0.793,0.038,60.0,0.0,0,0.0
11:36:39.464150,41,173003,102403,91870,169818,524031,524031,-0.328,-0.879,0.186,60.0,0.0,0,0.0
11:36:39.471742,42,173146,101931,90846,169805,524031,524031,-0.787,-1.019,-0.002,60.0,0.0,0,0.0
11:36:39.643241,43,173095,100969,89397,169334,524031,524031,-0.939,-0.939,0.383,60.0,0.0,0,0.0
11:36:39.650222,44,172912,100689,89008,169035,524031,524031,-0.518,-0.929,0.241,60.0,0.0,0,0.0
11:36:39.657885,45,172655,100673,88987,168714,524031,524031,-0.499,-0.845,0.197,60.0,0.0,0,0.0
11:36:39.664864,46,172469,100961,89087,168160,524031,524031,-0.506,-0.901,-0.063,60.0,0.0,0,0.0
11:36:39.671395,47,172400,101474,89463,167700,524031,524031,-0.741,-0.736,0.173,60.0,0.0,0,0.0
11:36:39.843848,48,172546,101922,90129,167786,524031,524031,-0.269,-0.800,0.151,60.0,0.0,0,0.0
11:36:39.851003,49,172669,102126,90561,168043,524031,524031,-0.083,-0.960,-0.009,60.0,0.0,0,0.0
11:36:39.857832,50,172845,102328,90730,168365,524031,524031,-0.734,-1.002,-0.115,60.0,0.0,0,0.0
11:36:39.864937,51,173336,102828,91244,169457,524031,524031,-0.400,-0.945,0.394,60.0,0.0,0,0.0
11:36:39.872090,52,174173,103286,91837,170574,524031,524031,-0.539,-1.142,0.113,60.0,0.0,0,0.0
11:36:40.047037,53,174941,103165,92183,170215,524031,524031,-0.167,-1.200,0.101,60.0,0.0,0,0.0
11:36:40.054227,54,175164,103512,92541,170740,524031,524031,-0.247,-0.864,0.036,60.0,0.0,0,0.0
11:36:40.061035,55,175506,104031,92815,172426,524031,524031,-0.389,-0.753,0.082,60.0,0.0,0,0.0
11:36:40.068003,56,176143,104386,93013,173975,524031,524031,-0.375,-0.813,0.110,60.0,0.0,0,0.0
11:36:40.074891,57,176803,104631,93135,175157,524031,524031,-0.146,-0.995,0.082,60.0,0.0,0,0.0
11:36:40.242873,58,177567,104863,93385,175659,524031,524031,-0.260,-1.092,0.070,60.0,0.0,0,0.0
11:36:40.250782,59,178289,104860,93651,175096,524031,524031,-0.263,-1.237,0.131,60.0,0.0,0,0.0
11:36:40.256994,60,178595,104940,94040,173934,524031,524031,-0.312,-1.129,-0.035,60.0,0.0,0,0.0
11:36:40.264933,61,178888,105239,94146,175061,524031,524031,-0.244,-0.958,-0.036,60.0,0.0,0,0.0
11:36:40.271983,62,179465,105494,94021,176711,524031,524031,-0.239,-0.761,0.063,60.0,0.0,0,0.0
11:36:40.444230,63,180148,105573,93769,177729,524031,524031,-0.225,-0.835,0.217,60.0,0.0,0,0.0
11:36:40.451480,64,180905,105376,93552,178094,524031,524031,-0.106,-0.965,0.153,60.0,0.0,0,0.0
11:36:40.458528,65,181326,104862,93362,177620,524031,524031,-0.257,-0.983,0.090,60.0,0.0,0,0.0
11:36:40.466690,66,181380,104668,93621,176281,524031,524031,-0.408,-1.056,0.004,60.0,0.0,0,0.0
11:36:40.474925,67,181278,104809,94139,176124,524031,524031,-0.080,-1.161,0.006,60.0,0.0,0,0.0
11:36:40.643288,68,181410,105051,94400,177460,524031,524031,-0.452,-0.936,0.143,60.0,0.0,0,0.0
11:36:40.650271,69,181636,104983,94370,178521,524031,524031,-0.400,-0.921,-0.032,60.0,0.0,0,0.0
11:36:40.658276,70,181739,105081,94590,179577,524031,524031,-0.100,-0.781,0.134,60.0,0.0,0,0.0
11:36:40.665230,71,181862,105487,94804,180517,524031,524031,-0.325,-0.761,0.173,60.0,0.0,0,0.0
11:36:40.672210,72,182319,105664,94846,180933,524031,524031,-0.640,-0.898,-0.005,60.0,0.0,0,0.0
11:36:40.843278,73,182873,106051,95095,181369,524031,524031,-0.593,-0.770,0.170,60.0,0.0,0,0.0
11:36:40.850829,74,183192,105794,94862,181643,524031,524031,-0.596,-1.205,-0.192,60.0,0.0,0,0.0
11:36:40.857811,75,183294,105565,94594,180860,524031,524031,-0.914,-1.009,0.442,60.0,0.0,0,0.0
11:36:40.864791,76,183545,105644,94468,181357,524031,524031,-0.696,-0.894,0.204,60.0,0.0,0,0.0
11:36:40.872168,77,183853,105605,94321,182070,524031,524031,-0.534,-0.881,-0.042,60.0,0.0,0,0.0
11:36:41.043394,78,184013,105751,94324,182446,524031,524031,-0.429,-0.805,0.093,60.0,0.0,0,0.0
11:36:41.050983,79,184192,106125,94437,182830,524031,524031,-0.616,-0.797,0.005,60.0,0.0,0,0.0
11:36:41.057965,80,184600,106457,94603,183303,524031,524031,-0.526,-0.754,0.069,60.0,0.0,0,0.0
11:36:41.064937,81,185111,106569,94658,183742,524031,524031,-0.281,-0.950,-0.015,60.0,0.0,0,0.0
11:36:41.072286,82,185618,106514,94706,183962,524031,524031,-0.495,-1.154,-0.115,60.0,0.0,0,0.0
11:36:41.248157,83,186135,106629,94788,184152,524031,524031,-0.773,-0.883,-0.128,60.0,0.0,0,0.0
11:36:41.255651,84,186576,106643,94785,184530,524031,524031,-0.492,-0.901,0.360,60.0,0.0,0,0.0
11:36:41.263770,85,186980,106454,94570,185292,524031,524031,-0.287,-0.973,0.198,60.0,0.0,0,0.0
11:36:41.269997,86,187429,106189,94324,185605,524031,524031,-0.634,-1.350,-0.428,60.0,0.0,0,0.0
11:36:41.277012,87,187795,105984,94248,185308,524031,524031,-0.408,-0.715,0.001,60.0,0.0,0,0.0
11:36:41.445070,88,187883,106236,94253,186409,524031,524031,-0.186,-0.606,0.231,60.0,0.0,0,0.0
11:36:41.453061,89,188307,106406,94273,187159,524031,524031,-0.228,-0.957,-0.160,59.0,0.0,0,0.0
11:36:41.461024,90,188771,106392,94306,187491,524031,524031,-0.184,-1.080,-0.029,59.0,0.0,0,0.0
11:36:41.470009,91,189203,106350,94381,187504,524031,524031,-0.546,-1.130,0.055,59.0,0.0,0,0.0
11:36:41.477978,92,189583,106272,94673,186947,524031,524031,-0.325,-1.188,0.050,59.0,0.0,0,0.0
11:36:41.648512,93,189959,106567,95067,187799,524031,524031,-0.168,-1.033,-0.047,59.0,0.0,0,0.0
11:36:41.658541,94,190456,106776,95061,189293,524031,524031,-0.234,-0.924,-0.002,59.0,0.0,0,0.0
11:36:41.665912,95,191012,106850,94838,190547,524031,524031,-0.339,-0.814,0.036,59.0,0.0,0,0.0
11:36:41.672962,96,191589,106798,94519,191256,524031,524031,-0.223,-0.784,0.193,59.0,0.0,0,0.0
11:36:41.679946,97,192243,106731,94188,191422,524031,524031,-0.224,-0.919,-0.052,59.0,0.0,0,0.0
11:36:41.844981,98,192873,106538,94025,191254,524031,524031,-0.280,-0.977,0.052,59.0,0.0,0,0.0
11:36:41.852063,99,193265,106212,94089,191083,524031,524031,-0.384,-1.017,-0.070,59.0,0.0,0,0.0
11:36:41.859020,100,193422,106195,94493,190925,524031,524031,-0.234,-1.079,-0.031,59.0,0.0,0,0.0
11:36:41.866002,101,193439,106466,95008,191186,524031,524031,-0.448,-0.910,0.161,59.0,1184.0,25,0.0
11:36:41.873307,102,193554,106568,95185,191224,524031,524031,-0.585,-0.937,-0.048,59.0,0.0,0,0.0
11:36:42.048051,103,193539,106854,95477,191514,524031,524031,-0.515,-0.776,0.055,59.0,0.0,0,0.0
11:36:42.055899,104,193448,107146,95586,192237,524031,524031,-0.474,-0.886,-0.061,59.0,0.0,0,0.0
11:36:42.063438,105,193207,106929,95164,192522,524031,524031,-0.585,-0.951,-0.065,59.0,0.0,0,0.0
11:36:42.070599,106,193026,106770,94779,192279,524031,524031,-0.654,-1.041,0.046,59.0,0.0,0,0.0
11:36:42.076893,107,192933,106993,94953,192070,524031,524031,-0.704,-0.897,0.175,59.0,0.0,0,0.0
11:36:42.251389,108,193051,107074,94933,191951,524031,524031,-0.854,-0.866,0.066,59.0,0.0,0,0.0
11:36:42.260043,109,193105,107005,94983,191656,524031,524031,-0.531,-0.854,0.085,59.0,0.0,0,0.0
11:36:42.267020,110,193111,107044,94961,192067,524031,524031,-0.470,-0.791,-0.007,59.0,0.0,0,0.0
11:36:42.274488,111,193286,107097,94878,192105,524031,524031,-0.670,-0.840,-0.018,59.0,0.0,0,0.0
11:36:42.282468,112,193410,107124,94883,192123,524031,524031,-0.473,-0.831,0.096,59.0,0.0,0,0.0
11:36:42.444986,113,193501,107393,95034,191956,524031,524031,-0.400,-0.969,-0.055,59.0,0.0,0,0.0
11:36:42.451941,114,193528,107874,95220,191000,524031,524031,-0.854,-0.807,0.036,59.0,0.0,0,0.0
11:36:42.458923,115,193402,108545,95712,191059,524031,524031,-0.558,-0.812,0.255,59.0,0.0,0,0.0
11:36:42.466932,116,193407,108100,95353,191901,524031,524031,-0.395,-1.119,0.089,59.0,0.0,0,0.0
11:36:42.473883,117,193326,107538,94717,190795,524031,524031,-0.587,-1.016,0.113,59.0,0.0,0,0.0
11:36:42.648697,118,193150,107291,94412,190286,524031,524031,-0.614,-0.862,-0.024,59.0,0.0,0,0.0
11:36:42.654883,119,193106,107167,94314,191376,524031,524031,-0.322,-0.766,0.025,59.0,0.0,0,0.0
11:36:42.662713,120,193191,107284,94365,192743,524031,524031,-0.356,-0.770,0.108,59.0,819.9,25,0.0
11:36:42.669696,121,193479,107217,94181,193372,524031,524031,-0.405,-0.908,0.018,59.0,0.0,0,0.0
11:36:42.676678,122,193862,107080,94088,193502,524031,524031,-0.321,-1.077,-0.012,59.0,0.0,0,0.0
11:36:42.848613,123,194030,106780,93944,192538,524031,524031,-0.510,-1.103,0.173,59.0,0.0,0,0.0
11:36:42.854890,124,193993,106818,94246,192397,524031,524031,-0.289,-1.218,-0.008,59.0,0.0,0,0.0
11:36:42.862741,125,194276,107171,94733,193862,524031,524031,-0.254,-1.156,0.012,59.0,0.0,0,0.0
11:36:42.870015,126,195012,107418,94878,195100,524031,524031,-0.360,-0.805,0.023,59.0,0.0,0,0.0
11:36:42.876729,127,196061,107782,95102,196229,524031,524031,-0.270,-0.713,0.018,59.0,0.0,0,0.0
11:36:43.047089,128,197158,107969,95160,197069,524031,524031,-0.084,-0.810,0.032,59.0,0.0,0,0.0
11:36:43.055849,129,198225,108110,95159,197688,524031,524031,-0.043,-0.937,0.008,59.0,0.0,0,0.0
11:36:43.063030,130,198921,107709,94809,197899,524031,524031,-0.339,-0.987,0.117,59.0,0.0,0,0.0
11:36:43.070093,131,199044,106683,94242,197436,524031,524031,-0.351,-1.022,0.055,59.0,0.0,0,0.0
11:36:43.076817,132,198876,106539,94509,196317,524031,524031,-0.268,-1.156,0.085,59.0,359.9,25,0.0
11:36:43.244626,133,198843,106677,94902,196188,524031,524031,-0.407,-0.937,0.048,59.0,0.0,0,0.0
11:36:43.251607,134,198950,106968,95214,196640,524031,524031,-0.399,-0.864,0.068,59.0,0.0,0,0.0
11:36:43.258589,135,199241,107445,95623,197288,524031,524031,-0.343,-0.822,-0.040,59.0,0.0,0,0.0
11:36:43.265569,136,199435,107986,96021,197904,524031,524031,-0.362,-0.829,0.182,59.0,0.0,0,0.0
11:36:43.273574,137,199510,108164,95871,198190,524031,524031,-0.758,-0.735,0.097,59.0,0.0,0,0.0
11:36:43.445243,138,199345,107673,95266,198366,524031,524031,-0.642,-0.978,0.082,59.0,0.0,0,0.0
11:36:43.454345,139,198919,106908,94314,198394,524031,524031,-0.765,-1.053,0.113,59.0,0.0,0,0.0
11:36:43.462128,140,198402,106224,93357,198454,524031,524031,-0.767,-1.017,0.235,59.0,0.0,0,0.0
11:36:43.469023,141,198060,105345,92369,198178,524031,524031,-0.946,-0.746,0.219,59.0,0.0,0,0.0
11:36:43.475873,142,197781,104912,92042,197949,524031,524031,-0.641,-0.790,0.077,59.0,0.0,0,0.0
11:36:43.644890,143,197648,105063,92399,197840,524031,524031,-0.451,-0.791,0.053,59.0,0.0,0,0.0
11:36:43.651870,144,197662,105574,92970,197672,524031,524031,-0.672,-0.704,0.070,59.0,0.0,0,0.0
11:36:43.659411,145,197885,105930,93433,197222,524031,524031,-0.544,-0.778,0.077,59.0,625.4,25,0.0
11:36:43.666610,146,197873,106184,93831,196408,524031,524031,-0.445,-0.906,0.051,59.0,0.0,0,0.0
11:36:43.673465,147,197697,106544,94231,196207,524031,524031,-0.522,-1.080,-0.065,59.0,0.0,0,0.0
11:36:43.847883,148,197687,106927,94592,196299,524031,524031,-0.790,-0.853,0.056,59.0,0.0,0,0.0
11:36:43.854865,149,197759,107222,94855,197162,524031,524031,-0.411,-1.031,0.179,59.0,0.0,0,0.0
11:36:43.861844,150,198040,107065,94735,197478,524031,524031,-0.411,-1.130,0.103,59.0,0.0,0,0.0
11:36:43.869824,151,198172,106715,94614,197478,524031,524031,-0.483,-1.070,-0.089,59.0,0.0,0,0.0
11:36:43.876804,152,198173,106623,94666,197976,524031,524031,-0.407,-0.826,-0.088,59.0,0.0,0,0.0
11:36:44.045874,153,198395,106795,94736,199025,524031,524031,-0.354,-0.736,0.021,59.0,0.0,0,0.0
11:36:44.053006,154,198823,106918,94783,200250,524031,524031,-0.260,-0.779,0.113,59.0,0.0,0,0.0
11:36:44.060112,155,199300,107011,94875,201112,524031,524031,-0.252,-0.968,0.031,59.0,0.0,0,0.0
11:36:44.067020,156,199564,107021,94960,201317,524031,524031,-0.338,-1.077,-0.022,59.0,0.0,0,0.0
11:36:44.074020,157,199565,106811,94959,200255,524031,524031,-0.713,-1.095,0.165,59.0,0.0,0,0.0
11:36:44.245862,158,199419,106789,95172,199398,524031,524031,-0.384,-1.190,0.017,59.0,0.0,0,0.0
11:36:44.253175,159,199319,106919,95343,200541,524031,524031,-0.258,-1.105,-0.122,59.0,0.0,0,0.0
11:36:44.260654,160,199283,107085,95328,201842,524031,524031,-0.254,-0.999,-0.008,59.0,0.0,0,0.0
11:36:44.267845,161,199379,107223,95257,202924,524031,524031,-0.288,-0.819,0.082,59.0,602.0,25,0.0
11:36:44.274962,162,199620,107353,95144,203631,524031,524031,-0.305,-0.771,0.090,59.0,0.0,0,0.0
11:36:44.445665,163,199870,107215,94875,203728,524031,524031,-0.167,-0.919,0.071,59.0,0.0,0,0.0
11:36:44.452638,164,199863,106798,94483,203123,524031,524031,-0.180,-1.004,0.109,59.0,0.0,0,0.0
11:36:44.459619,165,199690,106460,94299,202187,524031,524031,-0.509,-0.925,0.074,59.0,0.0,0,0.0
11:36:44.467597,166,199579,106440,94460,201826,524031,524031,-0.384,-1.002,-0.074,59.0,0.0,0,0.0
11:36:44.475576,167,199433,106710,94887,201766,524031,524031,-0.264,-0.983,0.059,59.0,0.0,0,0.0
11:36:44.645784,168,199346,107156,95290,201828,524031,524031,-0.371,-0.883,-0.044,59.0,0.0,0,0.0
11:36:44.653603,169,199333,107674,95601,202197,524031,524031,-0.482,-0.873,-0.158,59.0,444.3,25,0.0
11:36:44.660736,170,199295,108028,95602,202471,524031,524031,-0.747,-0.709,0.165,59.0,0.0,0,0.0
11:36:44.666958,171,199264,108038,95231,202565,524031,524031,-0.780,-1.055,0.029,59.0,0.0,0,0.0
11:36:44.675000,172,199165,107701,94831,202202,524031,524031,-0.635,-1.002,-0.063,59.0,0.0,0,0.0
11:36:44.845514,173,198743,107200,94208,201736,524031,524031,-0.679,-1.049,0.121,59.0,0.0,0,0.0
11:36:44.853492,174,198409,106765,93591,201425,524031,524031,-0.952,-0.746,0.070,59.0,0.0,0,0.0
11:36:44.864463,175,198222,106443,93311,201563,524031,524031,-0.419,-0.762,-0.136,59.0,0.0,0,0.0
11:36:44.872441,176,198139,106203,93058,201647,524031,524031,-0.399,-0.888,-0.232,59.0,0.0,0,0.0
11:36:44.880420,177,198216,106184,92961,201355,524031,524031,-0.717,-0.900,0.030,59.0,0.0,0,0.0
11:36:45.049263,178,198452,106270,93003,201197,524031,524031,-0.590,-0.746,0.110,59.0,0.0,0,0.0
11:36:45.057240,179,198575,106359,93087,201311,524031,524031,-0.469,-0.794,0.002,59.0,0.0,0,0.0
11:36:45.064841,180,198667,106308,93191,201065,524031,524031,-0.501,-0.924,-0.169,59.0,0.0,0,0.0
11:36:45.072140,181,198600,106676,93537,201638,524031,524031,-0.454,-0.885,-0.277,59.0,0.0,0,0.0
11:36:45.078985,182,198727,106935,93709,202026,524031,524031,-0.780,-1.014,-0.008,59.0,0.0,0,0.0
11:36:45.247970,183,199003,106763,93667,201802,524031,524031,-0.518,-1.101,0.063,59.0,0.0,0,0.0
11:36:45.255270,184,199093,106654,93435,202161,524031,524031,-0.479,-0.901,-0.019,59.0,0.0,0,0.0
11:36:45.262684,185,199325,106739,93284,202763,524031,524031,-0.453,-0.712,0.000,59.0,0.0,0,0.0
11:36:45.269889,186,199512,106934,93332,203145,524031,524031,-0.401,-0.803,-0.061,59.0,0.0,0,0.0
11:36:45.276346,187,199664,106976,93275,203136,524031,524031,-0.401,-0.984,-0.173,59.0,0.0,0,0.0
11:36:45.446855,188,199656,106421,92874,202577,524031,524031,-0.412,-1.006,-0.097,59.0,0.0,0,0.0
11:36:45.454078,189,199475,105989,92626,201711,524031,524031,-0.529,-0.996,0.124,59.0,0.0,0,0.0
11:36:45.460983,190,199335,106092,92895,201885,524031,524031,-0.367,-1.203,-0.156,59.0,0.0,0,0.0
11:36:45.468371,191,199339,106215,93077,202370,524031,524031,-0.257,-1.044,-0.091,59.0,0.0,0,0.0
11:36:45.474828,192,199611,106718,93432,203197,524031,524031,-0.257,-0.882,-0.021,59.0,0.0,0,0.0
11:36:45.646473,193,200034,106972,93547,203644,524031,524031,-0.253,-0.872,-0.044,59.0,0.0,0,0.0
11:36:45.653455,194,200255,106777,93319,203524,524031,524031,-0.252,-0.822,0.120,59.0,0.0,0,0.0
11:36:45.661583,195,200372,106595,93048,203166,524031,524031,-0.264,-0.924,0.017,59.0,0.0,0,0.0
11:36:45.668837,196,200352,106254,92710,202619,524031,524031,-0.476,-0.911,0.066,59.0,0.0,0,0.0
11:36:45.675826,197,200270,105806,92451,202021,524031,524031,-0.393,-1.043,-0.111,59.0,0.0,0,0.0
11:36:45.846727,198,200035,105713,92716,201478,524031,524031,-0.279,-0.915,0.017,59.0,0.0,0,0.0
11:36:45.854425,199,199671,105994,93143,201362,524031,524031,-0.392,-0.940,-0.020,59.0,614.5,25,0.0
11:36:45.861433,200,199352,106348,93352,201356,524031,524031,-0.514,-0.842,-0.020,59.0,0.0,0,0.0
11:36:45.868390,201,199099,106561,93318,201336,524031,524031,-0.742,-0.789,0.094,59.0,0.0,0,0.0
11:36:45.875371,202,198780,106550,93172,201367,524031,524031,-0.645,-1.018,-0.067,59.0,0.0,0,0.0
11:36:46.050159,203,198239,106110,92635,201280,524031,524031,-0.569,-0.993,-0.056,59.0,0.0,0,0.0
11:36:46.056812,204,197718,105829,92178,200937,524031,524031,-0.715,-0.962,0.236,60.0,0.0,0,0.0
11:36:46.063779,205,197362,105600,91782,200685,524031,524031,-0.793,-0.885,-0.029,60.0,0.0,0,0.0
11:36:46.071820,206,197080,105529,91886,200452,524031,524031,-0.467,-0.826,0.061,60.0,0.0,0,0.0
11:36:46.077938,207,196790,105525,92110,200324,524031,524031,-0.507,-0.801,0.100,60.0,0.0,0,0.0
11:36:46.246928,208,196564,105518,92126,200069,524031,524031,-0.868,-0.754,-0.014,60.0,0.0,0,0.0
11:36:46.254366,209,196433,105516,92293,199886,524031,524031,-0.424,-0.808,0.137,60.0,0.0,0,0.0
11:36:46.261347,210,196137,105607,92393,199880,524031,524031,-0.342,-0.787,0.025,60.0,0.0,0,0.0
11:36:46.268327,211,195807,105357,92157,199658,524031,524031,-0.609,-1.008,0.011,60.0,0.0,0,0.0
11:36:46.275210,212,195504,105033,91871,199266,524031,524031,-0.646,-0.971,0.037,60.0,0.0,0,0.0
11:36:46.446713,213,195255,104471,91430,198920,524031,524031,-0.570,-1.037,0.241,60.0,0.0,0,0.0
11:36:46.453660,214,195355,104126,91347,198121,524031,524031,-0.378,-1.077,0.182,60.0,0.0,0,0.0
11:36:46.460673,215,195472,104351,91741,197571,524031,524031,-0.342,-1.051,-0.115,60.0,0.0,0,0.0
11:36:46.468620,216,195435,105134,92579,197448,524031,524031,-0.446,-0.807,0.007,60.0,0.0,0,0.0
11:36:46.474754,217,195485,106109,93340,198103,524031,524031,-0.190,-0.778,0.204,60.0,0.0,0,0.0
11:36:46.647807,218,195581,106626,93614,198696,524031,524031,-0.310,-0.856,0.096,60.0,1056.9,25,0.0
11:36:46.654660,219,195970,106934,93840,199139,524031,524031,-0.136,-1.004,-0.020,60.0,0.0,0,0.0
11:36:46.661912,220,196442,107106,94019,199292,524031,524031,-0.277,-1.088,0.020,60.0,0.0,0,0.0
11:36:46.669446,221,196754,107184,94229,199249,524031,524031,-0.313,-1.238,0.128,60.0,0.0,0,0.0
11:36:46.675812,222,197065,107378,94566,199575,524031,524031,-0.195,-1.229,-0.003,60.0,0.0,0,0.0
11:36:46.846119,223,197447,107527,94767,200656,524031,524031,-0.132,-1.041,0.108,60.0,0.0,0,0.0
11:36:46.854099,224,197864,107541,94735,201536,524031,524031,-0.221,-0.801,0.133,60.0,0.0,0,0.0
11:36:46.861707,225,198168,107709,94724,201977,524031,524031,-0.139,-0.743,0.145,60.0,0.0,0,0.0
11:36:46.868725,226,198481,107844,94629,202006,524031,524031,-0.031,-0.830,-0.028,60.0,0.0,0,0.0
11:36:46.875685,227,198608,107444,94186,201823,524031,524031,0.149,-0.886,0.101,60.0,0.0,0,0.0
11:36:47.047910,228,198473,106631,93493,201089,524031,524031,-0.223,-1.078,0.100,60.0,0.0,0,0.0
11:36:47.054807,229,198045,105749,92865,199433,524031,524031,-0.535,-1.079,-0.043,60.0,0.0,0,0.0
11:36:47.062399,230,197429,105711,93118,198420,524031,524031,-0.281,-1.107,0.090,60.0,0.0,0,0.0
11:36:47.069479,231,196869,105980,93521,198153,524031,524031,-0.398,-0.990,0.050,60.0,0.0,0,0.0
11:36:47.075805,232,196420,106353,93883,198317,524031,524031,-0.255,-0.889,0.127,60.0,0.0,0,0.0
11:36:47.247899,233,196094,106600,93998,198521,524031,524031,-0.466,-0.793,0.105,60.0,0.0,0,0.0
11:36:47.254791,234,195939,106849,94066,198473,524031,524031,-0.577,-0.777,0.161,60.0,0.0,0,0.0
11:36:47.262497,235,195837,107384,94382,198599,524031,524031,-0.541,-0.839,0.000,60.0,0.0,0,0.0
11:36:47.269685,236,195552,107412,94193,198631,524031,524031,-0.724,-0.989,0.012,60.0,0.0,0,0.0
11:36:47.276863,237,195326,107086,93552,198200,524031,524031,-0.905,-0.812,0.425,60.0,0.0,0,0.0
11:36:47.447399,238,195052,106615,92942,198160,524031,524031,-0.782,-0.981,-0.010,60.0,0.0,0,0.0
11:36:47.454539,239,194804,106115,92494,197792,524031,524031,-0.583,-0.727,0.314,60.0,0.0,0,0.0
11:36:47.462343,240,194595,106189,92576,197667,524031,524031,-0.521,-0.804,0.016,60.0,0.0,0,0.0
11:36:47.468899,241,194707,106353,92891,197138,524031,524031,-0.728,-0.802,0.079,60.0,0.0,0,0.0
11:36:47.475541,242,195156,106813,93515,196322,524031,524031,-0.566,-0.860,0.185,60.0,0.0,0,0.0
11:36:47.646915,243,195215,107348,94171,195749,524031,524031,-0.357,-0.781,0.145,60.0,1183.1,25,0.0
11:36:47.654893,244,195136,107524,94455,196263,524031,524031,-0.487,-1.120,-0.242,60.0,0.0,0,0.0
11:36:47.661874,245,195080,107549,94597,196770,524031,524031,-0.634,-0.861,0.110,60.0,0.0,0,0.0
11:36:47.669852,246,195071,107659,94630,197569,524031,524031,-0.415,-0.963,0.360,60.0,0.0,0,0.0
11:36:47.676833,247,195261,107160,94404,197349,524031,524031,-0.423,-1.171,0.073,60.0,0.0,0,0.0
11:36:47.848335,248,195168,106757,94317,196314,524031,524031,-0.646,-0.976,-0.028,60.0,0.0,0,0.0
11:36:47.854791,249,195074,107223,94724,197750,524031,524031,-0.319,-0.777,0.049,60.0,0.0,0,0.0
11:36:47.862642,250,195123,107757,95002,199474,524031,524031,-0.132,-0.811,0.138,60.0,314.3,25,0.0
11:36:47.869737,251,195330,107969,94970,200246,524031,524031,-0.302,-0.871,-0.064,60.0,0.0,0,0.0
11:36:47.876856,252,195608,107995,94877,200719,524031,524031,-0.291,-1.025,-0.023,60.0,0.0,0,0.0
11:36:48.047877,253,195929,107700,94622,200409,524031,524031,-0.504,-1.164,0.146,60.0,0.0,0,0.0
11:36:48.055826,254,196009,107699,94813,199016,524031,524031,-0.380,-1.200,0.270,60.0,0.0,0,0.0
11:36:48.062981,255,196112,108187,95576,199849,524031,524031,-0.070,-1.257,-0.192,60.0,0.0,0,0.0
11:36:48.069352,256,196407,108475,96030,201575,524031,524031,-0.200,-1.013,0.089,60.0,0.0,0,0.0
11:36:48.077329,257,196960,108753,96162,203393,524031,524031,-0.420,-0.729,0.168,60.0,0.0,0,0.0
11:36:48.249835,258,197547,108713,95981,204758,524031,524031,-0.111,-0.688,0.077,60.0,0.0,0,0.0
11:36:48.256081,259,197836,108643,95735,205361,524031,524031,0.003,-0.794,0.006,60.0,0.0,0,0.0
11:36:48.263110,260,197764,108396,95307,205067,524031,524031,-0.019,-0.951,0.113,60.0,0.0,0,0.0
11:36:48.271027,261,197682,107762,94717,204270,524031,524031,-0.413,-1.023,0.044,60.0,0.0,0,0.0
11:36:48.277771,262,197685,107148,94496,202678,524031,524031,-0.430,-1.104,-0.043,60.0,0.0,0,0.0
11:36:48.448764,263,197468,107242,94944,201706,524031,524031,-0.137,-1.065,0.268,60.0,0.0,0,0.0
11:36:48.455745,264,197190,107461,95267,201468,524031,524031,-0.222,-1.009,-0.105,60.0,0.0,0,0.0
11:36:48.462726,265,196782,107854,95698,201632,524031,524031,-0.306,-0.857,0.098,60.0,0.0,0,0.0
11:36:48.469926,266,196442,108134,95698,201784,524031,524031,-0.651,-0.717,0.069,60.0,0.0,0,0.0
11:36:48.476876,267,196380,108111,95458,201975,524031,524031,-0.658,-0.881,-0.023,60.0,0.0,0,0.0
11:36:48.650470,268,196153,107575,94798,201998,524031,524031,-0.563,-1.011,0.055,60.0,0.0,0,0.0
11:36:48.656876,269,195547,106967,94015,201544,524031,524031,-0.559,-1.029,0.289,60.0,0.0,0,0.0
11:36:48.664275,270,194430,106658,93583,201414,524031,524031,-0.823,-1.013,0.077,60.0,0.0,0,0.0
11:36:48.671913,271,193364,106276,93167,201151,524031,524031,-0.848,-0.804,-0.030,60.0,0.0,0,0.0
11:36:48.678828,272,192487,106163,93147,200903,524031,524031,-0.406,-0.715,0.249,60.0,0.0,0,0.0
11:36:48.848853,273,191917,106269,93269,200399,524031,524031,-0.469,-0.902,-0.081,60.0,0.0,0,0.0
11:36:48.856421,274,191558,106621,93502,199774,524031,524031,-0.594,-0.770,0.120,60.0,0.0,0,0.0
11:36:48.863374,275,191465,106938,93686,199162,524031,524031,-0.554,-0.708,0.168,60.0,0.0,0,0.0
11:36:48.870231,276,191435,106922,93612,198650,524031,524031,-0.580,-0.924,0.090,60.0,0.0,0,0.0
11:36:48.876825,277,191404,106599,93330,198077,524031,524031,-0.497,-1.084,-0.114,60.0,0.0,0,0.0
11:36:49.048185,278,191371,106408,93125,197618,524031,524031,-0.742,-0.773,0.244,60.0,0.0,0,0.0
11:36:49.055167,279,191440,106462,93229,197521,524031,524031,-0.296,-1.124,0.095,60.0,0.0,0,0.0
11:36:49.062148,280,191551,106638,93329,197183,524031,524031,-0.494,-1.001,-0.248,60.0,0.0,0,0.0
11:36:49.069596,281,191493,107032,93438,197085,524031,524031,-0.501,-0.862,-0.067,60.0,0.0,0,0.0
11:36:49.076706,282,191363,107293,93481,197146,524031,524031,-0.366,-0.793,0.136,60.0,0.0,0,0.0
11:36:49.248815,283,191151,107418,93498,197320,524031,524031,-0.351,-0.895,0.127,60.0,0.0,0,0.0
11:36:49.256217,284,190949,107288,93393,197109,524031,524031,-0.310,-0.996,-0.057,60.0,0.0,0,0.0
11:36:49.263558,285,190620,107102,93294,196609,524031,524031,-0.369,-1.065,0.004,60.0,1324.0,25,0.0
11:36:49.270025,286,190447,107137,93400,196146,524031,524031,-0.454,-1.076,0.063,60.0,0.0,0,0.0
11:36:49.277811,287,190830,107271,93626,196704,524031,524031,-0.325,-1.131,-0.022,60.0,0.0,0,0.0
11:36:49.449368,288,191812,107187,93603,197543,524031,524031,-0.242,-1.109,-0.075,60.0,0.0,0,0.0
11:36:49.456298,289,192508,107041,93471,197974,524031,524031,-0.257,-0.793,0.171,60.0,0.0,0,0.0
11:36:49.463554,290,193221,107113,93461,198249,524031,524031,-0.209,-0.795,0.069,60.0,0.0,0,0.0
11:36:49.470303,291,193983,107103,93402,198437,524031,524031,-0.123,-0.879,-0.050,60.0,0.0,0,0.0
11:36:49.477820,292,194287,106873,93210,198227,524031,524031,-0.131,-0.852,0.108,60.0,0.0,0,0.0
11:36:49.649255,293,194175,106381,92947,197285,524031,524031,-0.374,-1.024,-0.007,60.0,0.0,0,0.0
11:36:49.656236,294,193853,106064,92968,195612,524031,524031,-0.491,-1.007,0.130,60.0,0.0,0,0.0
11:36:49.663607,295,193296,106061,93276,194681,524031,524031,-0.445,-1.000,0.029,60.0,0.0,0,0.0
11:36:49.669900,296,193004,106426,93794,195024,524031,524031,-0.336,-0.948,0.077,60.0,0.0,0,0.0
11:36:49.677805,297,192719,107067,94304,195675,524031,524031,-0.479,-0.630,0.119,60.0,0.0,0,0.0
11:36:49.848896,298,192341,107342,94320,196118,524031,524031,-0.741,-0.768,0.113,60.0,0.0,0,0.0
11:36:49.856696,299,192053,107251,93972,196356,524031,524031,-0.638,-0.743,-0.039,60.0,0.0,0,0.0
11:36:49.863805,300,191641,107035,93558,196544,524031,524031,-0.766,-1.045,0.179,60.0,0.0,0,0.0
11:36:49.870830,301,191331,106804,93185,196546,524031,524031,-0.773,-0.902,0.413,60.0,0.0,0,0.0
11:36:49.877849,302,190926,106543,92840,196693,524031,524031,-0.899,-0.921,0.017,60.0,0.0,0,0.0
11:36:50.050592,303,190609,106113,92395,196570,524031,524031,-0.800,-0.613,0.086,60.0,0.0,0,0.0
11:36:50.056850,304,190437,105680,92007,196463,524031,524031,-0.520,-0.760,0.019,60.0,0.0,0,0.0
11:36:50.064142,305,190450,105344,91659,196124,524031,524031,-0.614,-0.636,0.169,60.0,0.0,0,0.0
11:36:50.071537,306,190523,105449,91637,195904,524031,524031,-0.599,-0.617,0.285,60.0,0.0,0,0.0
11:36:50.078518,307,190502,105425,91626,195837,524031,524031,-0.443,-1.001,0.039,60.0,0.0,0,0.0
11:36:50.249381,308,190226,105159,91397,195682,524031,524031,-0.678,-0.895,0.034,60.0,983.9,25,0.0
11:36:50.255733,309,189876,105107,91322,195510,524031,524031,-0.590,-0.838,0.168,60.0,0.0,0,0.0
11:36:50.263689,310,189990,105400,91460,195265,524031,524031,-0.829,-0.933,0.025,60.0,0.0,0,0.0
11:36:50.270694,311,190715,105855,91881,195082,524031,524031,-0.721,-1.060,-0.091,60.0,0.0,0,0.0
11:36:50.277849,312,191397,105938,91978,194916,524031,524031,-0.453,-0.966,0.005,60.0,0.0,0,0.0
11:36:50.450284,313,191708,106333,92198,195462,524031,524031,-0.403,-0.770,0.080,60.0,0.0,0,0.0
11:36:50.456833,314,192082,106635,92290,196100,524031,524031,-0.387,-0.760,0.082,60.0,0.0,0,0.0
11:36:50.464291,315,192339,106666,92265,196513,524031,524031,-0.293,-0.895,0.015,60.0,0.0,0,0.0
11:36:50.471436,316,192594,106722,92307,196697,524031,524031,-0.397,-0.987,-0.069,60.0,0.0,0,0.0
11:36:50.477831,317,193034,106705,92441,196534,524031,524031,-0.302,-1.037,0.096,60.0,0.0,0,0.0
11:36:50.648516,318,193620,106665,92638,196292,524031,524031,-0.206,-1.156,-0.055,60.0,0.0,0,0.0
11:36:50.655498,319,194039,106703,92815,196312,524031,524031,-0.448,-1.018,-0.029,60.0,0.0,0,0.0
11:36:50.662513,320,194305,106806,92967,196967,524031,524031,-0.286,-0.903,0.050,60.0,0.0,0,0.0
11:36:50.670459,321,194389,107081,93141,197417,524031,524031,-0.182,-0.813,0.160,60.0,0.0,0,0.0
11:36:50.677438,322,194302,107124,93119,197463,524031,524031,-0.254,-0.877,0.043,60.0,0.0,0,0.0
11:36:50.850014,323,194051,106507,92757,196851,524031,524031,-0.232,-0.895,0.061,60.0,0.0,0,0.0
11:36:50.856783,324,193618,105978,92461,195831,524031,524031,-0.321,-0.910,0.035,60.0,0.0,0,0.0
11:36:50.864236,325,193190,105896,92553,194947,524031,524031,-0.507,-1.055,-0.114,60.0,0.0,0,0.0
11:36:50.871366,326,192862,105918,92626,194551,524031,524031,-0.387,-1.058,0.016,60.0,0.0,0,0.0
11:36:50.877872,327,192622,106107,92787,194364,524031,524031,-0.529,-0.959,0.136,60.0,324.3,25,0.0
11:36:51.051857,328,192508,106331,92825,194229,524031,524031,-0.577,-0.824,0.079,60.0,0.0,0,0.0
11:36:51.060823,329,192388,106893,93258,194474,524031,524031,-0.489,-0.770,0.099,60.0,0.0,0,0.0
11:36:51.067474,330,192127,107295,93439,194779,524031,524031,-0.618,-0.743,-0.020,60.0,0.0,0,0.0
11:36:51.074454,331,191786,107379,93295,195057,524031,524031,-0.732,-0.887,0.000,60.0,0.0,0,0.0
11:36:51.081434,332,191376,106884,92447,194953,524031,524031,-0.884,-0.815,0.171,60.0,0.0,0,0.0
11:36:51.251159,333,190884,106180,91680,194797,524031,524031,-0.642,-1.169,0.197,60.0,0.0,0,0.0
11:36:51.258740,334,190365,105304,90826,194594,524031,524031,-0.890,-0.770,0.087,60.0,0.0,0,0.0
11:36:51.265721,335,189967,105103,90592,194410,524031,524031,-0.666,-0.625,0.107,60.0,0.0,0,0.0
11:36:51.272703,336,189825,105208,90908,194068,524031,524031,-0.520,-0.872,-0.069,60.0,0.0,0,0.0
11:36:51.280614,337,189750,105438,91273,193755,524031,524031,-0.527,-0.745,0.079,60.0,905.2,25,0.0
11:36:51.451765,338,189782,105394,91222,193265,524031,524031,-0.549,-0.702,0.116,60.0,0.0,0,0.0
11:36:51.458744,339,189671,105531,91282,192933,524031,524031,-0.529,-0.845,0.132,60.0,0.0,0,0.0
11:36:51.465721,340,189603,105641,91343,192780,524031,524031,-0.518,-0.935,-0.002,60.0,0.0,0,0.0
11:36:51.472744,341,189518,105524,91195,192581,524031,524031,-0.640,-0.955,0.087,60.0,0.0,0,0.0
11:36:51.479724,342,189515,105411,91175,192523,524031,524031,-0.549,-0.973,0.007,60.0,0.0,0,0.0
11:36:51.650479,343,189655,105618,91281,192742,524031,524031,-0.733,-0.864,0.001,60.0,0.0,0,0.0
11:36:51.657461,344,190129,105742,91199,192804,524031,524031,-0.533,-1.076,-0.016,60.0,0.0,0,0.0
11:36:51.664443,345,190474,105504,90947,192722,524031,524031,-0.441,-1.010,-0.004,60.0,0.0,0,0.0
11:36:51.671703,346,190591,105425,90882,192758,524031,524031,-0.356,-0.827,0.039,60.0,0.0,0,0.0
11:36:51.678822,347,190529,105636,91024,192886,524031,524031,-0.477,-0.740,0.040,60.0,358.5,25,0.0
11:36:51.851744,348,190572,105858,91188,193147,524031,524031,-0.401,-0.820,-0.015,60.0,0.0,0,0.0
11:36:51.858857,349,190730,105938,91222,193390,524031,524031,-0.178,-1.020,-0.144,60.0,0.0,0,0.0
11:36:51.866360,350,190892,105987,91208,193107,524031,524031,-0.508,-1.015,0.007,60.0,0.0,0,0.0
11:36:51.873084,351,191157,105690,91083,192283,524031,524031,-0.396,-1.137,0.033,60.0,0.0,0,0.0
11:36:51.880806,352,191261,105532,91115,191437,524031,524031,-0.238,-1.142,-0.114,60.0,0.0,0,0.0
11:36:52.050670,353,191262,105762,91419,191555,524031,524031,-0.259,-0.996,-0.022,60.0,0.0,0,0.0
11:36:52.057566,354,191803,106022,91704,192036,524031,524031,-0.365,-0.781,-0.047,60.0,0.0,0,0.0
11:36:52.068537,355,192672,106194,91815,192552,524031,524031,-0.289,-0.776,0.079,60.0,0.0,0,0.0
11:36:52.075438,356,193440,106130,91704,192995,524031,524031,-0.256,-0.866,-0.020,60.0,0.0,0,0.0
11:36:52.082419,357,193748,105535,91223,192719,524031,524031,-0.250,-0.991,-0.004,60.0,0.0,0,0.0
11:36:52.250740,358,193355,105018,90982,191703,524031,524031,-0.443,-0.970,-0.032,60.0,0.0,0,0.0
11:36:52.257723,359,192924,105186,91411,191055,524031,524031,-0.367,-1.075,-0.232,60.0,0.0,0,0.0
11:36:52.264704,360,192510,105601,91951,191001,524031,524031,-0.429,-1.001,0.004,60.0,0.0,0,0.0
11:36:52.272656,361,192216,105832,92185,190917,524031,524031,-0.561,-0.963,-0.031,60.0,0.0,0,0.0
11:36:52.279848,362,192064,106017,92319,190977,524031,524031,-0.456,-0.887,-0.080,60.0,0.0,0,0.0
11:36:52.450064,363,191800,106336,92493,191280,524031,524031,-0.492,-0.747,0.021,60.0,0.0,0,0.0
11:36:52.457792,364,191541,106580,92421,191600,524031,524031,-0.664,-0.797,-0.064,64.0,0.0,0,0.0
11:36:52.464695,365,191216,106483,92042,191786,524031,524031,-0.765,-0.906,-0.104,64.0,0.0,0,0.0
11:36:52.472301,366,190901,106169,91506,191739,524031,524031,-0.755,-0.940,0.078,64.0,0.0,0,0.0
11:36:52.479347,367,190581,105759,91028,191653,524031,524031,-0.639,-1.169,-0.018,64.0,0.0,0,0.0
11:36:52.652084,368,190205,105224,90414,191454,524031,524031,-0.949,-0.806,0.027,64.0,0.0,0,0.0
11:36:52.658801,369,189934,105234,90433,191279,524031,524031,-0.696,-0.734,0.080,67.0,0.0,0,0.0
11:36:52.666293,370,189887,105388,90812,191142,524031,524031,-0.455,-0.832,-0.096,67.0,0.0,0,0.0
11:36:52.672894,371,189798,105590,91050,190853,524031,524031,-0.581,-0.732,0.072,67.0,0.0,0,0.0
11:36:52.680539,372,189738,105861,91263,190671,524031,524031,-0.437,-0.777,0.032,67.0,0.0,0,0.0
11:36:52.850536,373,189620,105981,91348,190475,524031,524031,-0.418,-0.857,-0.146,67.0,0.0,0,0.0
11:36:52.857785,374,189560,105779,91052,190100,524031,524031,-0.690,-0.873,-0.034,70.0,0.0,0,0.0
11:36:52.864721,375,189516,105749,90987,189811,524031,524031,-0.548,-0.921,0.037,70.0,0.0,0,0.0
11:36:52.872823,376,189635,105822,90987,189801,524031,524031,-0.498,-1.109,-0.006,70.0,0.0,0,0.0
11:36:52.880084,377,189954,105850,90989,189467,524031,524031,-0.616,-1.116,-0.060,70.0,0.0,0,0.0
11:36:53.051329,378,190020,105735,90878,189239,524031,524031,-0.575,-0.963,-0.105,70.0,1193.7,25,0.0
11:36:53.058826,379,189907,105702,90818,189337,524031,524031,-0.325,-0.774,0.088,73.0,0.0,0,0.0
11:36:53.066330,380,189768,105879,90944,189485,524031,524031,-0.283,-0.709,0.064,73.0,0.0,0,0.0
11:36:53.073540,381,189714,106061,91084,189900,524031,524031,-0.260,-0.974,-0.185,73.0,0.0,0,0.0
11:36:53.079823,382,189615,105910,90921,189911,524031,524031,-0.270,-1.052,-0.181,73.0,0.0,0,0.0
11:36:53.250316,383,189456,105637,90703,189059,524031,524031,-0.677,-1.001,0.169,73.0,0.0,0,0.0
11:36:53.257296,384,189461,105339,90621,188017,524031,524031,-0.285,-1.231,-0.101,76.0,0.0,0,0.0
11:36:53.264277,385,189351,105541,90983,187691,524031,524031,-0.065,-1.030,-0.027,76.0,0.0,0,0.0
11:36:53.271259,386,189575,106126,91540,188143,524031,524031,-0.293,-0.954,0.187,76.0,0.0,0,0.0
11:36:53.278240,387,190105,106524,91806,188660,524031,524031,-0.340,-0.748,0.038,76.0,0.0,0,0.0
11:36:53.451119,388,190379,106678,91901,189088,524031,524031,-0.075,-0.872,0.010,76.0,0.0,0,0.0
11:36:53.458827,389,190378,106634,91778,189100,524031,524031,-0.092,-0.937,-0.048,76.0,0.0,0,0.0
11:36:53.466125,390,190229,105988,91195,188385,524031,524031,-0.453,-0.888,0.038,76.0,0.0,0,0.0
11:36:53.473383,391,189963,105558,91159,187604,524031,524031,-0.262,-1.098,-0.050,76.0,0.0,0,0.0
11:36:53.479826,392,189514,105690,91690,187349,524031,524031,-0.219,-1.099,-0.128,76.0,0.0,0,0.0
11:36:53.650660,393,188897,106075,92058,187193,524031,524031,-0.474,-0.962,0.103,76.0,0.0,0,0.0
11:36:53.658638,394,188418,106314,92198,187338,524031,524031,-0.502,-0.866,0.010,76.0,0.0,0,0.0
11:36:53.666032,395,188107,106622,92409,187670,524031,524031,-0.516,-0.802,0.157,76.0,0.0,0,0.0
11:36:53.673013,396,187855,106666,92304,187992,524031,524031,-0.533,-0.895,0.050,76.0,0.0,0,0.0
11:36:53.679996,397,187573,106247,91796,188229,524031,524031,-0.674,-1.063,-0.191,76.0,0.0,0,0.0
11:36:53.852475,398,187271,105671,91073,188022,524031,524031,-0.786,-1.046,0.076,76.0,0.0,0,0.0
11:36:53.859757,399,186984,105378,90752,188112,524031,524031,-0.558,-1.151,-0.015,76.0,0.0,0,0.0
11:36:53.867165,400,186775,105148,90394,188020,524031,524031,-0.814,-0.777,0.013,76.0,0.0,0,0.0
11:36:53.874414,401,186643,105411,90499,188060,524031,524031,-0.583,-0.564,0.108,76.0,0.0,0,0.0
11:36:53.881396,402,186642,105356,90454,188050,524031,524031,-0.390,-0.868,0.011,76.0,0.0,0,0.0
11:36:54.051786,403,186813,105362,90464,187683,524031,524031,-0.505,-0.762,0.032,76.0,0.0,0,0.0
11:36:54.059419,404,186942,105504,90672,187306,524031,524031,-0.481,-0.857,0.081,76.0,0.0,0,0.0
11:36:54.066377,405,186954,105640,90910,186960,524031,524031,-0.340,-1.095,-0.087,76.0,1126.4,25,0.0
11:36:54.074355,406,186962,105495,90972,186174,524031,524031,-0.690,-1.020,-0.005,76.0,0.0,0,0.0
11:36:54.081623,407,186914,105732,91360,185938,524031,524031,-0.531,-0.880,0.070,76.0,0.0,0,0.0
11:36:54.251794,408,187032,106035,91817,186374,524031,524031,-0.224,-1.112,0.081,76.0,0.0,0,0.0
11:36:54.259678,409,187366,106196,92037,186882,524031,524031,-0.471,-1.068,-0.129,76.0,0.0,0,0.0
11:36:54.266699,410,187792,106585,92362,187785,524031,524031,-0.521,-0.902,-0.076,76.0,0.0,0,0.0
11:36:54.273966,411,188361,107088,92777,188929,524031,524031,-0.207,-0.862,0.112,76.0,0.0,0,0.0
11:36:54.280799,412,189019,107438,92972,189980,524031,524031,-0.269,-0.856,-0.045,76.0,0.0,0,0.0
11:36:54.452152,413,189684,107562,93031,190835,524031,524031,-0.244,-0.983,0.116,76.0,0.0,0,0.0
11:36:54.459368,414,190262,107623,93066,191530,524031,524031,-0.083,-1.084,-0.179,76.0,0.0,0,0.0
11:36:54.465696,415,190531,107403,92962,191446,524031,524031,-0.528,-1.001,0.056,76.0,0.0,0,0.0
11:36:54.473811,416,190859,107284,93027,191632,524031,524031,-0.220,-1.175,0.068,76.0,0.0,0,0.0
11:36:54.481097,417,191415,107359,93246,192143,524031,524031,-0.131,-1.150,-0.271,76.0,0.0,0,0.0
11:36:54.653498,418,191970,107445,93313,193057,524031,524031,-0.214,-0.996,0.147,76.0,0.0,0,0.0
11:36:54.660859,419,192706,107584,93326,194243,524031,524031,-0.227,-0.885,-0.055,76.0,0.0,0,0.0
11:36:54.667688,420,193435,107748,93253,195174,524031,524031,-0.202,-0.828,0.075,76.0,0.0,0,0.0
11:36:54.674592,421,194003,107867,93182,195569,524031,524031,-0.134,-0.826,0.010,76.0,0.0,0,0.0
11:36:54.682144,422,194361,107838,93056,195508,524031,524031,-0.018,-0.997,0.037,76.0,0.0,0,0.0
11:36:54.855479,423,194420,107435,92798,194753,524031,524031,-0.282,-0.998,-0.043,76.0,0.0,0,0.0
11:36:54.863605,424,194122,107166,92822,193709,524031,524031,-0.448,-1.014,-0.047,75.0,0.0,0,0.0
11:36:54.870764,425,193842,107146,93088,193456,524031,524031,-0.198,-1.119,-0.017,75.0,0.0,0,0.0
11:36:54.877746,426,193401,107095,93265,193095,524031,524031,-0.449,-1.050,-0.003,75.0,0.0,0,0.0
11:36:54.884690,427,192954,107079,93325,192961,524031,524031,-0.612,-0.893,-0.027,75.0,0.0,0,0.0
11:36:55.052752,428,192734,107276,93646,193312,524031,524031,-0.343,-0.894,0.080,75.0,0.0,0,0.0
11:36:55.059955,429,192551,107578,93984,193372,524031,524031,-0.399,-0.888,0.016,75.0,0.0,0,0.0
11:36:55.066761,430,192241,107666,93954,193351,524031,524031,-0.545,-0.811,0.014,75.0,0.0,0,0.0
11:36:55.073477,431,192004,107651,93725,193488,524031,524031,-0.653,-0.810,0.005,75.0,0.0,0,0.0
11:36:55.081454,432,191810,107367,93198,193855,524031,524031,-0.625,-1.009,-0.212,75.0,1037.1,25,0.0
11:36:55.256353,433,191685,107155,92723,193985,524031,524031,-0.722,-0.901,0.179,75.0,0.0,0,0.0
11:36:55.267324,434,191607,106981,92363,193970,524031,524031,-0.655,-1.011,0.063,75.0,0.0,0,0.0
11:36:55.274305,435,191469,106659,91950,193687,524031,524031,-0.814,-0.820,0.125,75.0,0.0,0,0.0
11:36:55.282218,436,191243,106747,91984,193680,524031,524031,-0.662,-0.718,0.055,75.0,0.0,0,0.0
11:36:55.290195,437,191002,106601,91942,193663,524031,524031,-0.435,-0.771,-0.008,75.0,264.2,25,0.0
11:36:55.453278,438,190731,106294,91742,193169,524031,524031,-0.675,-0.847,-0.013,75.0,0.0,0,0.0
11:36:55.460386,439,190520,106206,91691,192513,524031,524031,-0.630,-0.847,-0.008,75.0,0.0,0,0.0
11:36:55.467675,440,190326,106267,91752,192215,524031,524031,-0.516,-0.876,0.085,75.0,0.0,0,0.0
11:36:55.474641,441,190187,106396,91826,192346,524031,524031,-0.589,-0.857,-0.007,75.0,0.0,0,0.0
11:36:55.481785,442,190167,106502,91901,192236,524031,524031,-0.627,-0.817,0.149,75.0,0.0,0,0.0
11:36:55.659482,443,190093,106418,91886,191942,524031,524031,-0.513,-0.881,0.026,75.0,0.0,0,0.0
11:36:55.667773,444,189895,106471,91955,191639,524031,524031,-0.617,-0.768,0.037,75.0,0.0,0,0.0
11:36:55.674683,445,189612,106787,92275,191573,524031,524031,-0.659,-0.705,0.093,75.0,0.0,0,0.0
11:36:55.681431,446,189233,106885,92453,191847,524031,524031,-0.532,-0.798,-0.007,75.0,0.0,0,0.0
11:36:55.689680,447,188792,106581,92266,192191,524031,524031,-0.534,-0.901,0.016,75.0,0.0,0,0.0
11:36:55.852537,448,188453,105943,91681,192007,524031,524031,-0.788,-0.976,0.228,75.0,0.0,0,0.0
11:36:55.859504,449,188106,105310,91278,191762,524031,524031,-0.647,-1.180,-0.017,75.0,0.0,0,0.0
11:36:55.866485,450,187818,104899,91013,191364,524031,524031,-0.735,-0.913,0.039,75.0,0.0,0,0.0
11:36:55.875461,451,187802,104984,91132,190922,524031,524031,-0.693,-0.901,0.033,75.0,0.0,0,0.0
11:36:55.882443,452,188106,105267,91441,190533,524031,524031,-0.510,-0.820,-0.005,75.0,0.0,0,0.0
11:36:56.052776,453,188419,106027,92029,190624,524031,524031,-0.381,-0.800,0.234,75.0,0.0,0,0.0
11:36:56.059779,454,188834,106495,92513,191048,524031,524031,-0.259,-0.967,-0.163,75.0,0.0,0,0.0
11:36:56.066761,455,189090,106781,92863,191036,524031,524031,-0.255,-1.038,0.052,75.0,0.0,0,0.0
11:36:56.073742,456,189393,106921,93067,190873,524031,524031,-0.260,-1.004,-0.056,75.0,0.0,0,0.0
11:36:56.081720,457,189644,107038,93279,190694,524031,524031,-0.218,-1.102,0.224,75.0,0.0,0,0.0
11:36:56.251708,458,189842,107201,93519,190444,524031,524031,-0.381,-1.055,0.105,75.0,0.0,0,0.0
11:36:56.259650,459,189983,107364,93715,190932,524031,524031,-0.334,-0.844,0.097,75.0,0.0,0,0.0
11:36:56.266723,460,190251,107679,93948,192317,524031,524031,-0.145,-0.818,0.057,75.0,876.6,25,0.0
11:36:56.274627,461,190479,108043,94161,193326,524031,524031,-0.125,-0.814,0.006,75.0,0.0,0,0.0
11:36:56.282180,462,190862,108334,94285,194237,524031,524031,-0.281,-0.834,0.075,75.0,0.0,0,0.0
11:36:56.452496,463,191568,108237,94108,194911,524031,524031,-0.263,-0.969,-0.028,75.0,0.0,0,0.0
11:36:56.459477,464,192206,108108,94071,194972,524031,524031,-0.342,-1.077,-0.020,75.0,0.0,0,0.0
11:36:56.467456,465,192413,108067,94232,194175,524031,524031,-0.450,-1.231,0.055,75.0,0.0,0,0.0
11:36:56.474610,466,192219,108032,94306,193544,524031,524031,-0.487,-1.107,-0.002,75.0,0.0,0,0.0
11:36:56.481852,467,191897,108126,94280,193605,524031,524031,-0.500,-0.904,0.058,75.0,0.0,0,0.0
11:36:56.652671,468,191579,108357,94342,193561,524031,524031,-0.497,-0.777,0.062,75.0,0.0,0,0.0
11:36:56.660612,469,191264,108657,94481,193625,524031,524031,-0.507,-0.772,0.043,75.0,0.0,0,0.0
11:36:56.667722,470,191103,108848,94526,193680,524031,524031,-0.532,-0.782,0.029,75.0,0.0,0,0.0
11:36:56.674663,471,190846,108577,94154,193656,524031,524031,-0.462,-1.029,-0.086,75.0,0.0,0,0.0
11:36:56.682263,472,190473,108154,93421,192985,524031,524031,-0.795,-0.807,-0.009,75.0,0.0,0,0.0
11:36:56.854116,473,190113,107897,92785,192746,524031,524031,-0.770,-0.900,0.125,75.0,0.0,0,0.0
11:36:56.861099,474,189803,107595,92270,192607,524031,524031,-0.868,-0.888,0.266,75.0,0.0,0,0.0
11:36:56.868080,475,189433,107162,91957,192433,524031,524031,-0.418,-0.942,0.077,75.0,0.0,0,0.0
11:36:56.875061,476,188920,107001,91941,192319,524031,524031,-0.565,-0.692,0.122,75.0,0.0,0,0.0
11:36:56.882584,477,188613,107041,91805,192029,524031,524031,-0.916,-0.484,0.130,75.0,0.0,0,0.0
11:36:57.053147,478,188342,107264,92097,192068,524031,524031,-0.513,-0.620,0.175,75.0,0.0,0,0.0
11:36:57.059539,479,188022,107434,92415,192285,524031,524031,-0.472,-0.972,0.079,75.0,0.0,0,0.0
11:36:57.066716,480,187693,107031,91964,192132,524031,524031,-0.889,-0.779,0.165,75.0,0.0,0,0.0
11:36:57.074504,481,187336,106512,91575,191953,524031,524031,-0.662,-0.983,0.191,75.0,0.0,0,0.0
11:36:57.081618,482,186830,105766,91056,191774,524031,524031,-0.860,-0.984,0.015,75.0,0.0,0,0.0
11:36:57.254652,483,186420,105564,90895,191530,524031,524031,-0.662,-0.737,0.240,75.0,794.5,25,0.0
11:36:57.262006,484,186409,105453,90990,191126,524031,524031,-0.510,-0.988,-0.145,75.0,0.0,0,0.0
11:36:57.268751,485,186555,105671,91176,190651,524031,524031,-0.573,-0.817,0.025,75.0,0.0,0,0.0
11:36:57.275608,486,186749,106105,91554,190687,524031,524031,-0.256,-0.856,0.047,75.0,0.0,0,0.0
11:36:57.283709,487,187169,106524,91993,190524,524031,524031,-0.417,-1.054,-0.141,75.0,0.0,0,0.0
11:36:57.454504,488,187757,106806,92395,190316,524031,524031,-0.283,-0.988,0.087,75.0,0.0,0,0.0
11:36:57.461646,489,188536,107097,92836,190144,524031,524031,-0.233,-1.065,0.165,75.0,0.0,0,0.0
11:36:57.468747,490,189382,107220,93023,189658,524031,524031,-0.280,-1.056,0.037,75.0,0.0,0,0.0
11:36:57.476199,491,189688,107381,93253,189551,524031,524031,-0.401,-0.867,0.089,75.0,0.0,0,0.0
11:36:57.483195,492,189892,107703,93485,190768,524031,524031,-0.164,-0.761,-0.050,75.0,0.0,0,0.0
11:36:57.654450,493,189902,108040,93636,191805,524031,524031,-0.025,-0.833,-0.076,75.0,0.0,0,0.0
11:36:57.661590,494,189686,108069,93531,192218,524031,524031,-0.204,-0.917,-0.038,75.0,0.0,0,0.0
11:36:57.668743,495,190000,107934,93424,192341,524031,524031,-0.292,-1.051,-0.102,75.0,0.0,0,0.0
11:36:57.675599,496,191422,107973,93687,191800,524031,524031,-0.397,-1.011,0.245,75.0,0.0,0,0.0
11:36:57.683148,497,193410,108088,94122,191315,524031,524031,-0.411,-1.051,0.044,75.0,0.0,0,0.0
11:36:57.853402,498,194923,108790,94693,193075,524031,524031,-0.417,-0.864,-0.037,75.0,697.9,25,0.0
11:36:57.860385,499,195399,109525,95101,194880,524031,524031,-0.560,-0.805,0.034,75.0,0.0,0,0.0
11:36:57.867464,500,195009,109685,94887,195399,524031,524031,-0.598,-0.879,-0.067,75.0,0.0,0,0.0
11:36:57.875419,501,194108,108253,93227,195150,524031,524031,-0.733,-0.961,-0.032,75.0,0.0,0,0.0
11:36:57.882391,502,193438,107152,91985,194671,524031,524031,-0.710,-0.964,-0.060,75.0,0.0,0,0.0
11:36:58.053843,503,192571,106882,91631,195191,524031,524031,-0.630,-0.751,0.230,75.0,0.0,0,0.0
11:36:58.060728,504,192085,106775,91266,195129,524031,524031,-0.885,-0.938,-0.089,75.0,0.0,0,0.0
11:36:58.067688,505,191811,106067,90646,194546,524031,524031,-0.466,-0.912,0.120,75.0,0.0,0,0.0
11:36:58.074482,506,191272,105775,90514,194018,524031,524031,-0.528,-0.773,0.094,75.0,0.0,0,0.0
11:36:58.082544,507,190741,105914,90625,193373,524031,524031,-0.772,-0.646,0.007,75.0,0.0,0,0.0
11:36:58.254226,508,190178,106465,91223,193170,524031,524031,-0.724,-0.619,0.121,75.0,0.0,0,0.0
11:36:58.261330,509,189513,106870,91675,193310,524031,524031,-0.511,-0.791,-0.038,75.0,0.0,0,0.0
11:36:58.267689,510,188900,107040,91717,193191,524031,524031,-0.590,-0.779,-0.026,75.0,0.0,0,0.0
11:36:58.275629,511,188376,106958,91289,192574,524031,524031,-1.084,-0.888,0.124,75.0,0.0,0,0.0
11:36:58.282723,512,187854,106410,90702,192026,524031,524031,-0.907,-0.664,0.149,75.0,0.0,0,0.0
11:36:58.456742,513,187290,105801,90307,191775,524031,524031,-0.601,-1.110,0.063,75.0,0.0,0,0.0
11:36:58.463486,514,186700,105262,89880,191368,524031,524031,-0.770,-0.974,-0.037,75.0,0.0,0,0.0
11:36:58.470466,515,186197,104822,89428,190385,524031,524031,-0.768,-0.776,-0.006,75.0,0.0,0,0.0
11:36:58.478445,516,185727,104969,89651,189648,524031,524031,-0.603,-0.696,-0.005,75.0,0.0,0,0.0
11:36:58.485427,517,185351,105247,89877,189626,524031,524031,-0.431,-0.844,0.103,75.0,0.0,0,0.0
11:36:58.657424,518,185152,105165,89791,189528,524031,524031,-0.321,-1.050,-0.027,75.0,0.0,0,0.0
11:36:58.665403,519,185084,105079,89704,189202,524031,524031,-0.511,-0.902,0.007,75.0,0.0,0,0.0
11:36:58.672385,520,185098,105055,89670,188921,524031,524031,-0.462,-0.965,0.098,75.0,0.0,0,0.0
11:36:58.679365,521,185259,104991,89642,188928,524031,524031,-0.262,-1.087,0.002,75.0,0.0,0,0.0
11:36:58.687344,522,185329,105015,89765,188934,524031,524031,-0.236,-0.995,-0.022,75.0,0.0,0,0.0
11:36:58.854168,523,185213,105342,90123,188987,524031,524031,-0.342,-0.822,0.009,75.0,0.0,0,0.0
11:36:58.861149,524,185162,105705,90426,189206,524031,524031,-0.227,-0.889,0.155,75.0,0.0,0,0.0
11:36:58.868631,525,185079,105806,90490,189223,524031,524031,-0.258,-0.870,0.127,75.0,0.0,0,0.0
11:36:58.875615,526,184826,105628,90306,188941,524031,524031,-0.348,-1.051,-0.037,75.0,0.0,0,0.0
11:36:58.884592,527,184483,105116,89837,187976,524031,524031,-0.308,-1.006,-0.022,75.0,0.0,0,0.0
11:36:59.057679,528,184094,105108,89810,187164,524031,524031,-0.383,-0.929,0.082,75.0,0.0,0,0.0
11:36:59.064749,529,183877,105469,90126,186859,524031,524031,-0.347,-0.863,0.005,75.0,0.0,0,0.0
11:36:59.072173,530,183734,105808,90427,186672,524031,524031,-0.281,-0.917,-0.074,75.0,0.0,0,0.0
11:36:59.079230,531,183567,106170,90720,186429,524031,524031,-0.479,-0.885,0.092,75.0,0.0,0,0.0
11:36:59.086205,532,183600,106253,90578,186185,524031,524031,-0.569,-1.035,-0.018,75.0,0.0,0,0.0
11:36:59.256652,533,183809,105899,90216,185636,524031,524031,-0.751,-0.983,0.018,75.0,978.6,25,0.0
11:36:59.264564,534,183871,106115,90383,186116,524031,524031,-0.347,-0.897,-0.044,74.0,0.0,0,0.0
11:36:59.271869,535,183799,106493,90461,186568,524031,524031,-0.841,-1.007,0.000,74.0,0.0,0,0.0
11:36:59.278704,536,184066,105866,89934,186273,524031,524031,-0.520,-1.016,0.065,74.0,0.0,0,0.0
11:36:59.286262,537,183842,105467,89735,186134,524031,524031,-0.412,-0.783,0.096,74.0,0.0,0,0.0
11:36:59.455109,538,183404,105699,89922,185979,524031,524031,-0.700,-0.667,-0.065,74.0,0.0,0,0.0
11:36:59.462091,539,182996,106116,90328,185841,524031,524031,-0.661,-0.629,0.079,74.0,0.0,0,0.0
11:36:59.469072,540,182637,106696,91017,185953,524031,524031,-0.421,-0.880,-0.029,74.0,0.0,0,0.0
11:36:59.476604,541,182359,106334,90582,185445,524031,524031,-0.907,-0.704,0.083,74.0,0.0,0,0.0
11:36:59.483585,542,182065,105946,90045,184595,524031,524031,-1.018,-0.892,0.029,74.0,0.0,0,0.0
11:36:59.654326,543,181698,105362,89564,183797,524031,524031,-0.603,-1.055,0.045,74.0,0.0,0,0.0
11:36:59.661306,544,181198,105080,89320,182675,524031,524031,-0.677,-0.772,0.089,74.0,0.0,0,0.0
11:36:59.669286,545,180888,105793,89952,182796,524031,524031,-0.700,-0.684,-0.111,74.0,0.0,0,0.0
11:36:59.676266,546,180953,106109,90214,183188,524031,524031,-0.489,-0.819,0.063,74.0,0.0,0,0.0
11:36:59.684283,547,181018,106482,90638,183698,524031,524031,-0.311,-0.884,0.007,74.0,0.0,0,0.0
11:36:59.857682,548,181215,106764,90900,184227,524031,524031,-0.463,-0.981,-0.058,74.0,0.0,0,0.0
11:36:59.866110,549,181761,106591,90910,183912,524031,524031,-0.407,-1.059,-0.003,74.0,0.0,0,0.0
11:36:59.873191,550,182236,106709,91233,183041,524031,524031,-0.244,-1.056,0.143,74.0,0.0,0,0.0
11:36:59.879733,551,182739,106918,91578,182755,524031,524031,-0.276,-1.116,-0.004,74.0,0.0,0,0.0
11:36:59.887655,552,183188,107025,91858,182763,524031,524031,-0.363,-0.979,0.082,74.0,0.0,0,0.0
11:37:00.060526,553,183582,107248,92125,183389,524031,524031,-0.297,-0.755,0.072,74.0,0.0,0,0.0
11:37:00.068502,554,184142,107721,92493,184281,524031,524031,-0.127,-0.800,-0.038,74.0,0.0,0,0.0
11:37:00.076481,555,184539,108075,92703,184842,524031,524031,-0.128,-0.802,0.118,74.0,0.0,0,0.0
11:37:00.082994,556,184914,108042,92627,185056,524031,524031,-0.229,-0.947,-0.029,74.0,0.0,0,0.0
11:37:00.090947,557,185067,107532,92266,184688,524031,524031,-0.237,-1.132,-0.007,74.0,0.0,0,0.0
11:37:00.254358,558,184669,107119,92212,183181,524031,524031,-0.302,-1.247,0.072,74.0,0.0,0,0.0
11:37:00.261842,559,183751,106982,92304,181739,524031,524031,-0.398,-1.132,0.053,73.0,0.0,0,0.0
11:37:00.269347,560,182949,107082,92333,181526,524031,524031,-0.483,-0.907,0.035,73.0,0.0,0,0.0
11:37:00.276554,561,182353,107395,92492,181774,524031,524031,-0.388,-0.742,0.066,73.0,0.0,0,0.0
11:37:00.282947,562,181901,107673,92670,182070,524031,524031,-0.314,-0.857,-0.070,73.0,0.0,0,0.0
11:37:00.455589,563,181579,107810,92644,182073,524031,524031,-0.431,-0.919,-0.012,73.0,0.0,0,0.0
11:37:00.463390,564,181374,107588,92115,181690,524031,524031,-0.618,-0.966,-0.041,74.0,0.0,0,0.0
11:37:00.470594,565,181287,107259,91393,180984,524031,524031,-0.934,-0.945,0.036,74.0,0.0,0,0.0
11:37:00.477599,566,181081,107119,91235,181321,524031,524031,-0.232,-1.014,0.034,74.0,0.0,0,0.0
11:37:00.484596,567,180790,106933,90786,181578,524031,524031,-0.985,-0.882,0.024,74.0,0.0,0,0.0
11:37:00.656567,568,180686,106512,90359,181355,524031,524031,-0.575,-0.889,-0.054,74.0,1521.5,25,0.0
11:37:00.664593,569,180290,106275,90330,181210,524031,524031,-0.261,-0.849,-0.041,75.0,0.0,0,0.0
11:37:00.671931,570,179826,106454,90473,181064,524031,524031,-0.598,-0.645,0.012,75.0,0.0,0,0.0
11:37:00.679347,571,179581,106769,90622,180906,524031,524031,-0.792,-0.692,-0.026,75.0,0.0,0,0.0
11:37:00.686586,572,179192,107235,91018,181268,524031,524031,-0.433,-0.881,-0.010,75.0,0.0,0,0.0
11:37:00.857593,573,178739,106926,90672,181297,524031,524031,-0.877,-0.928,0.021,75.0,0.0,0,0.0
11:37:00.864585,574,178475,106665,90325,181044,524031,524031,-0.896,-0.892,0.192,76.0,0.0,0,0.0
11:37:00.872089,575,178178,106216,90274,181281,524031,524031,-0.630,-1.171,-0.145,76.0,0.0,0,0.0
11:37:00.879075,576,177929,105564,89927,180774,524031,524031,-0.733,-0.856,0.002,76.0,0.0,0,0.0
11:37:00.885573,577,177791,105719,90141,180257,524031,524031,-0.666,-0.780,-0.143,76.0,0.0,0,0.0
11:37:01.055566,578,177518,106018,90324,180485,524031,524031,-0.512,-0.777,-0.173,76.0,0.0,0,0.0
11:37:01.063078,579,177252,106424,90634,181067,524031,524031,-0.307,-0.824,0.101,77.0,0.0,0,0.0
11:37:01.070523,580,177232,106574,90641,181336,524031,524031,-0.379,-0.895,-0.033,77.0,0.0,0,0.0
11:37:01.077730,581,177512,106335,90350,181168,524031,524031,-0.455,-1.001,0.027,77.0,0.0,0,0.0
11:37:01.084586,582,178089,105986,90104,180476,524031,524031,-0.431,-1.048,0.079,77.0,0.0,0,0.0
11:37:01.255564,583,178852,105989,90237,179931,524031,524031,-0.226,-1.145,0.196,77.0,0.0,0,0.0
11:37:01.262546,584,179929,106210,90513,180234,524031,524031,-0.349,-1.112,0.012,78.0,0.0,0,0.0
11:37:01.270724,585,181043,106347,90660,180812,524031,524031,-0.305,-0.936,-0.081,78.0,957.9,25,0.0
11:37:01.277709,586,181775,106500,90884,181415,524031,524031,-0.092,-0.812,-0.051,78.0,0.0,0,0.0
11:37:01.284724,587,182044,106909,91173,181965,524031,524031,-0.056,-0.782,-0.133,78.0,0.0,0,0.0
11:37:01.455126,588,182233,107272,91268,182528,524031,524031,-0.336,-0.861,0.003,78.0,0.0,0,0.0
11:37:01.463073,589,182389,107096,91025,182656,524031,524031,-0.230,-1.028,-0.012,78.0,0.0,0,0.0
11:37:01.470055,590,182404,106456,90538,181919,524031,524031,-0.160,-1.169,-0.046,78.0,0.0,0,0.0
11:37:01.477034,591,181729,105982,90225,180286,524031,524031,-0.412,-1.127,0.069,78.0,0.0,0,0.0
11:37:01.484576,592,181046,106122,90440,179616,524031,524031,-0.530,-0.938,-0.069,78.0,0.0,0,0.0
11:37:01.656105,593,180629,106634,90933,179919,524031,524031,-0.377,-0.781,0.001,78.0,0.0,0,0.0
11:37:01.663086,594,180436,106831,91115,180240,524031,524031,-0.270,-0.958,-0.133,79.0,0.0,0,0.0
11:37:01.670911,595,180352,106908,91169,180139,524031,524031,-0.515,-0.895,-0.042,79.0,0.0,0,0.0
11:37:01.677547,596,180293,106899,91095,179891,524031,524031,-0.592,-0.946,-0.083,79.0,0.0,0,0.0
11:37:01.685525,597,180294,106819,90937,179615,524031,524031,-0.715,-0.965,-0.105,79.0,562.8,25,0.0
11:37:01.862559,598,180315,106961,90951,180138,524031,524031,-0.409,-0.962,-0.137,79.0,0.0,0,0.0
11:37:01.872535,599,180354,106934,90692,180599,524031,524031,-0.614,-0.918,-0.127,79.0,0.0,0,0.0
11:37:01.878514,600,180374,106789,90324,180510,524031,524031,-0.870,-0.889,0.119,79.0,0.0,0,0.0
11:37:01.886498,601,180273,106191,89850,180094,524031,524031,-0.443,-0.962,-0.027,79.0,0.0,0,0.0
11:37:01.894472,602,179831,106133,89817,179847,524031,524031,-0.549,-0.714,0.021,79.0,0.0,0,0.0
11:37:02.056058,603,179412,106446,90022,179758,524031,524031,-0.775,-0.626,0.006,79.0,0.0,0,0.0
11:37:02.063306,604,179013,106912,90597,179949,524031,524031,-0.474,-0.763,-0.066,79.0,0.0,0,0.0
11:37:02.070531,605,178479,106943,90744,180223,524031,524031,-0.588,-0.974,-0.133,79.0,0.0,0,0.0
11:37:02.077430,606,178052,106478,90156,180015,524031,524031,-0.887,-0.657,0.089,79.0,0.0,0,0.0
11:37:02.084642,607,177606,106169,89832,180135,524031,524031,-0.784,-1.046,0.028,79.0,0.0,0,0.0
11:37:02.257658,608,177292,105788,89488,180130,524031,524031,-0.772,-0.947,0.074,79.0,0.0,0,0.0
11:37:02.264563,609,177060,105576,89333,180095,524031,524031,-0.571,-0.764,0.059,79.0,0.0,0,0.0
11:37:02.272565,610,177048,105430,89242,179757,524031,524031,-0.659,-0.801,-0.086,79.0,0.0,0,0.0
11:37:02.279841,611,177064,105531,89455,179343,524031,524031,-0.571,-0.828,-0.003,79.0,0.0,0,0.0
11:37:02.286752,612,177042,105624,89574,179019,524031,524031,-0.512,-0.900,-0.026,79.0,0.0,0,0.0
11:37:02.456551,613,177101,105610,89523,178688,524031,524031,-0.453,-1.021,-0.079,79.0,0.0,0,0.0
11:37:02.464403,614,177256,105494,89367,178256,524031,524031,-0.337,-1.035,0.020,79.0,0.0,0,0.0
11:37:02.470646,615,177346,105512,89353,177708,524031,524031,-0.384,-1.097,0.145,79.0,0.0,0,0.0
11:37:02.478653,616,177492,105539,89434,177205,524031,524031,-0.341,-1.060,0.003,79.0,0.0,0,0.0
11:37:02.486141,617,177385,105628,89624,176863,524031,524031,-0.250,-0.867,0.026,79.0,605.1,25,0.0
11:37:02.657695,618,177220,106041,90001,176894,524031,524031,-0.223,-0.727,-0.055,79.0,0.0,0,0.0
11:37:02.665550,619,177122,106621,90351,177160,524031,524031,-0.187,-0.776,-0.051,79.0,0.0,0,0.0
11:37:02.673002,620,177118,106962,90480,177378,524031,524031,-0.227,-0.852,0.019,79.0,0.0,0,0.0
11:37:02.680392,621,177120,106619,90128,177248,524031,524031,-0.205,-1.106,-0.081,79.0,0.0,0,0.0
11:37:02.687650,622,176994,106073,89748,176156,524031,524031,-0.238,-1.101,0.144,79.0,0.0,0,0.0
11:37:02.856229,623,176630,105930,89774,174600,524031,524031,-0.475,-1.096,0.000,79.0,0.0,0,0.0
11:37:02.863962,624,176377,106161,90178,174730,524031,524031,-0.400,-0.923,-0.026,79.0,0.0,0,0.0
11:37:02.870943,625,176185,106644,90566,175325,524031,524031,-0.432,-0.781,0.017,79.0,0.0,0,0.0
11:37:02.877925,626,176042,106996,90818,175822,524031,524031,-0.452,-0.818,-0.058,79.0,0.0,0,0.0
11:37:02.885903,627,176076,107387,90999,175907,524031,524031,-0.512,-0.987,0.009,79.0,0.0,0,0.0
11:37:03.056020,628,176026,108045,91233,175418,524031,524031,-0.703,-0.990,0.000,79.0,0.0,0,0.0
11:37:03.064359,629,175726,108397,91183,174834,524031,524031,-0.621,-0.933,0.068,79.0,0.0,0,0.0
11:37:03.071586,630,175523,108584,91460,175468,524031,524031,-0.573,-0.797,-0.028,79.0,0.0,0,0.0
11:37:03.078619,631,175270,108172,90861,175542,524031,524031,-0.933,-0.830,0.236,79.0,0.0,0,0.0
11:37:03.086594,632,175187,107678,90417,175356,524031,524031,-0.542,-0.939,0.022,79.0,0.0,0,0.0
11:37:03.261749,633,174945,107261,90091,174924,524031,524031,-0.502,-0.867,0.002,79.0,0.0,0,0.0
11:37:03.269719,634,174674,107155,89931,174561,524031,524031,-0.759,-0.670,0.056,79.0,0.0,0,0.0
11:37:03.276700,635,174506,107203,89991,174512,524031,524031,-0.664,-0.649,0.116,79.0,0.0,0,0.0
11:37:03.283821,636,174294,107285,90157,174793,524031,524031,-0.527,-0.761,-0.011,79.0,0.0,0,0.0
11:37:03.291672,637,173965,106805,89730,174677,524031,524031,-0.578,-0.956,-0.031,79.0,0.0,0,0.0
11:37:03.455982,638,173421,106287,89099,173443,524031,524031,-0.893,-0.872,0.054,79.0,0.0,0,0.0
11:37:03.463362,639,172774,106123,88905,172468,524031,524031,-0.886,-0.846,0.064,79.0,0.0,0,0.0
11:37:03.471333,640,172171,105643,88598,171408,524031,524031,-0.521,-1.050,0.313,79.0,0.0,0,0.0
11:37:03.478630,641,171782,105623,88876,171412,524031,524031,-0.719,-0.749,0.143,79.0,0.0,0,0.0
11:37:03.485529,642,171850,105706,88992,171409,524031,524031,-0.843,-0.732,0.073,79.0,0.0,0,0.0
11:37:03.657272,643,172049,105877,89237,172212,524031,524031,-0.287,-0.881,-0.266,79.0,0.0,0,0.0
11:37:03.664526,644,172165,106299,89578,173028,524031,524031,-0.254,-0.859,0.152,79.0,0.0,0,0.0
11:37:03.672233,645,172692,106281,89435,173261,524031,524031,-0.533,-0.996,-0.120,79.0,0.0,0,0.0
11:37:03.679678,646,173419,105968,89261,173156,524031,524031,-0.399,-1.010,0.029,79.0,0.0,0,0.0
11:37:03.686526,647,174205,105972,89329,173191,524031,524031,-0.262,-1.032,0.040,79.0,0.0,0,0.0
11:37:03.857533,648,175113,106019,89444,173432,524031,524031,-0.245,-1.126,0.007,79.0,0.0,0,0.0
11:37:03.864522,649,175885,106130,89612,173805,524031,524031,-0.259,-0.931,0.063,79.0,1339.4,25,0.0
11:37:03.872618,650,176456,106314,89830,174299,524031,524031,-0.249,-0.815,-0.008,79.0,0.0,0,0.0
11:37:03.880514,651,176895,106587,90043,174879,524031,524031,-0.239,-0.854,0.048,79.0,0.0,0,0.0
11:37:03.887516,652,177161,106710,90119,175289,524031,524031,-0.249,-0.919,-0.021,79.0,0.0,0,0.0
11:37:04.056527,653,177306,106606,90030,175338,524031,524031,-0.137,-1.009,-0.076,79.0,0.0,0,0.0
11:37:04.063662,654,177169,106138,89692,174718,524031,524031,-0.104,-1.108,0.103,79.0,0.0,0,0.0
11:37:04.071927,655,176810,106034,89731,173939,524031,524031,-0.028,-1.112,0.101,79.0,0.0,0,0.0
11:37:04.078516,656,176521,106227,90048,173669,524031,524031,-0.080,-0.959,0.028,79.0,0.0,0,0.0
11:37:04.086513,657,176214,106463,90314,173638,524031,524031,-0.407,-1.221,-0.090,79.0,0.0,0,0.0
11:37:04.257614,658,175987,106632,90187,173657,524031,524031,-1.376,-0.743,0.066,79.0,0.0,0,0.0
11:37:04.264522,659,176175,106654,90284,174038,524031,524031,-0.478,-0.914,-0.249,79.0,0.0,0,0.0
11:37:04.272114,660,176059,106779,90380,174179,524031,524031,-0.249,-1.126,0.179,79.0,0.0,0,0.0
11:37:04.279499,661,176128,106775,90092,174236,524031,524031,-0.527,-1.053,-0.186,79.0,0.0,0,0.0
11:37:04.286714,662,176125,106589,89807,174535,524031,524031,-0.605,-0.975,0.131,79.0,0.0,0,0.0
11:37:04.457191,663,176192,106713,89627,174852,524031,524031,-0.969,-0.896,0.066,79.0,0.0,0,0.0
11:37:04.464170,664,176237,106329,89353,174781,524031,524031,-0.431,-1.008,0.001,79.0,0.0,0,0.0
11:37:04.472149,665,176039,106304,89456,174811,524031,524031,-0.394,-0.788,0.024,79.0,0.0,0,0.0
11:37:04.479130,666,175928,106401,89323,174748,524031,524031,-0.983,-0.633,-0.136,79.0,0.0,0,0.0
11:37:04.487109,667,175828,106668,89579,174911,524031,524031,-0.573,-0.601,0.059,79.0,0.0,0,0.0
11:37:04.661334,668,175465,107133,90136,175339,524031,524031,-0.352,-0.955,-0.089,79.0,0.0,0,0.0
11:37:04.669606,669,175112,106814,89711,175231,524031,524031,-0.912,-0.725,0.041,79.0,0.0,0,0.0
11:37:04.676465,670,174726,106360,89250,175022,524031,524031,-0.794,-0.849,0.094,79.0,0.0,0,0.0
11:37:04.684516,671,174388,106007,89122,175049,524031,524031,-0.657,-1.033,0.097,79.0,971.4,25,0.0
11:37:04.691501,672,174356,105510,88804,174616,524031,524031,-0.643,-1.028,-0.229,79.0,0.0,0,0.0
11:37:04.858216,673,174340,105422,88737,174248,524031,524031,-0.692,-0.770,0.179,79.0,0.0,0,0.0
11:37:04.865507,674,174384,105582,88900,174461,524031,524031,-0.618,-0.795,-0.168,79.0,0.0,0,0.0
11:37:04.873209,675,174583,105803,89104,174816,524031,524031,-0.353,-0.845,-0.026,79.0,0.0,0,0.0
11:37:04.881190,676,175066,106202,89330,175246,524031,524031,-0.185,-0.924,-0.040,79.0,0.0,0,0.0
11:37:04.888599,677,175906,106174,89284,175375,524031,524031,-0.364,-1.010,-0.092,79.0,0.0,0,0.0
11:37:04.896203,678,176924,106133,89548,174573,524031,524031,-0.291,-1.070,0.079,79.0,0.0,0,0.0
11:37:05.263941,679,177466,106286,89962,173688,524031,524031,-0.116,-1.230,0.092,79.0,0.0,0,0.0
11:37:05.270940,680,177821,106476,90261,173672,524031,524031,-0.237,-0.994,-0.016,79.0,0.0,0,0.0
11:37:05.277542,681,178106,106671,90470,174399,524031,524031,-0.244,-0.826,-0.061,79.0,0.0,0,0.0
11:37:05.285645,682,178314,106996,90643,175103,524031,524031,-0.162,-0.792,-0.038,79.0,0.0,0,0.0
11:37:05.293088,683,178307,107071,90583,175197,524031,524031,-0.136,-0.841,-0.010,79.0,0.0,0,0.0
11:37:05.299590,684,177999,107092,90477,175033,524031,524031,-0.252,-0.863,-0.039,79.0,0.0,0,0.0
11:37:05.306548,685,177793,106858,90218,174705,524031,524031,-0.195,-1.110,-0.017,79.0,0.0,0,0.0
11:37:05.314242,686,177364,106287,89697,173447,524031,524031,-0.219,-1.229,-0.027,79.0,0.0,0,0.0
11:37:05.322090,687,176638,106207,89659,172326,524031,524031,-0.319,-1.139,-0.020,79.0,0.0,0,0.0
11:37:05.329137,688,176114,106369,89807,172140,524031,524031,-0.440,-0.929,-0.083,79.0,0.0,0,0.0
11:37:05.662088,689,175777,106642,90071,172306,524031,524031,-0.367,-0.810,-0.119,79.0,0.0,0,0.0
11:37:05.670238,690,175544,106917,90319,172738,524031,524031,-0.221,-0.869,-0.101,79.0,0.0,0,0.0
11:37:05.677486,691,175315,107112,90404,172939,524031,524031,-0.403,-0.846,-0.078,79.0,0.0,0,0.0
11:37:05.684475,692,175300,107049,90199,172871,524031,524031,-0.560,-1.046,-0.041,79.0,0.0,0,0.0
11:37:05.691589,693,175368,106606,89751,172554,524031,524031,-0.803,-0.931,-0.004,79.0,911.7,25,0.0
11:37:05.698572,694,175398,106387,89609,172947,524031,524031,-0.311,-1.151,-0.146,80.0,0.0,0,0.0
11:37:05.706484,695,175290,106424,89531,173518,524031,524031,-0.659,-0.929,-0.170,80.0,0.0,0,0.0
11:37:05.714327,696,175386,106246,89138,173558,524031,524031,-0.842,-0.871,-0.029,80.0,0.0,0,0.0
11:37:05.721432,697,175417,105932,88906,173324,524031,524031,-0.308,-0.844,0.077,80.0,0.0,0,0.0
11:37:05.860445,698,175229,105850,88814,173156,524031,524031,-0.439,-0.852,-0.196,80.0,0.0,0,0.0
11:37:05.866934,699,174951,106038,88954,173013,524031,524031,-0.624,-0.681,-0.023,80.0,0.0,0,0.0
11:37:05.874492,700,174736,106691,89480,173299,524031,524031,-0.524,-0.659,-0.038,80.0,0.0,0,0.0
11:37:05.881475,701,174515,107077,89792,173726,524031,524031,-0.521,-0.915,-0.183,80.0,0.0,0,0.0
11:37:05.888628,702,174274,106793,89493,173697,524031,524031,-0.802,-0.731,0.032,80.0,0.0,0,0.0
11:37:05.895982,703,173878,106527,89253,173739,524031,524031,-0.764,-1.000,0.005,80.0,0.0,0,0.0
11:37:06.266479,704,173416,106091,88959,173798,524031,524031,-0.719,-1.093,-0.052,80.0,0.0,0,0.0
11:37:06.273909,705,173050,105561,88702,173561,524031,524031,-0.567,-0.947,0.000,80.0,0.0,0,0.0
11:37:06.281582,706,172827,105662,88897,172923,524031,524031,-0.624,-0.885,-0.141,80.0,0.0,0,0.0
11:37:06.288578,707,172964,106027,89304,172138,524031,524031,-0.653,-0.765,-0.095,80.0,0.0,0,0.0
11:37:06.295931,708,173254,106903,89898,172627,524031,524031,-0.466,-0.727,0.046,80.0,0.0,0,0.0
11:37:06.303030,709,173726,107577,90253,173666,524031,524031,-0.441,-0.746,0.189,80.0,0.0,0,0.0
11:37:06.310424,710,174478,107398,90081,174127,524031,524031,-0.503,-1.126,-0.054,80.0,0.0,0,0.0
11:37:06.316597,711,175353,106773,89819,173670,524031,524031,-0.009,-1.016,-0.414,80.0,0.0,0,0.0
11:37:06.324283,712,175628,106850,90241,172601,524031,524031,-0.098,-1.154,0.415,80.0,0.0,0,0.0
11:37:06.332124,713,176283,107266,90881,173146,524031,524031,-0.611,-1.047,-0.150,80.0,684.2,25,0.0
11:37:06.662737,714,177341,107356,91202,175007,524031,524031,-0.325,-0.919,0.014,81.0,0.0,0,0.0
11:37:06.669718,715,178624,107853,91638,177168,524031,524031,-0.096,-0.788,-0.162,81.0,0.0,0,0.0
11:37:06.677697,716,179274,108118,91846,178405,524031,524031,-0.147,-0.783,-0.051,81.0,0.0,0,0.0
11:37:06.684794,717,179613,108227,91854,179094,524031,524031,-0.250,-0.812,-0.109,81.0,0.0,0,0.0
11:37:06.691775,718,179819,107716,91433,179082,524031,524031,-0.187,-1.116,-0.208,81.0,0.0,0,0.0
11:37:06.698759,719,179688,107274,91254,178007,524031,524031,-0.371,-1.135,0.054,81.0,0.0,0,0.0
11:37:06.706761,720,179168,107644,91746,176457,524031,524031,-0.377,-1.199,0.082,81.0,0.0,0,0.0
11:37:06.715747,721,178744,107903,92030,176317,524031,524031,-0.424,-1.004,0.023,81.0,0.0,0,0.0
11:37:06.722725,722,178579,108098,92166,176505,524031,524031,-0.503,-0.814,0.035,81.0,0.0,0,0.0
11:37:06.860003,723,178519,108287,92272,176871,524031,524031,-0.408,-0.758,-0.078,81.0,0.0,0,0.0
11:37:06.866545,724,178362,108467,92347,177059,524031,524031,-0.374,-0.885,-0.123,81.0,0.0,0,0.0
11:37:06.874363,725,177984,108259,92090,176803,524031,524031,-0.443,-1.001,-0.091,81.0,0.0,0,0.0
11:37:06.881396,726,177637,107711,91435,176210,524031,524031,-0.755,-0.950,-0.099,81.0,0.0,0,0.0
11:37:06.888364,727,177478,107646,91164,176095,524031,524031,-0.446,-0.959,0.120,81.0,0.0,0,0.0
11:37:06.895462,728,177399,107527,90824,176432,524031,524031,-0.697,-0.940,0.059,81.0,0.0,0,0.0
11:37:07.267500,729,177452,107234,90414,176360,524031,524031,-0.797,-0.856,0.054,81.0,0.0,0,0.0
11:37:07.275460,730,177511,107036,90343,176210,524031,524031,-0.401,-0.883,-0.094,81.0,0.0,0,0.0
11:37:07.282802,731,177302,107072,90502,176155,524031,524031,-0.375,-0.790,-0.037,81.0,0.0,0,0.0
11:37:07.289557,732,177035,107374,90573,176195,524031,524031,-0.789,-0.628,0.038,81.0,0.0,0,0.0
11:37:07.296530,733,176915,107614,90774,176483,524031,524031,-0.510,-0.882,0.000,81.0,0.0,0,0.0
11:37:07.303651,734,176541,107153,90562,176708,524031,524031,-0.647,-0.849,0.023,81.0,0.0,0,0.0
11:37:07.311509,735,176155,106346,89913,176295,524031,524031,-0.772,-0.977,0.011,81.0,0.0,0,0.0
11:37:07.318555,736,175684,105716,89696,175936,524031,524031,-0.583,-1.050,0.031,81.0,0.0,0,0.0
11:37:07.325461,737,175446,105462,89622,174927,524031,524031,-0.662,-0.890,0.010,81.0,0.0,0,0.0
11:37:07.333311,738,175492,105600,89811,174420,524031,524031,-0.657,-0.885,-0.039,81.0,0.0,0,0.0
11:37:07.663894,739,175747,106387,90602,174212,524031,524031,-0.513,-0.713,0.069,81.0,0.0,0,0.0
11:37:07.671160,740,176045,107075,91012,175015,524031,524031,-0.306,-0.940,-0.125,81.0,903.3,25,0.0
11:37:07.678513,741,176506,107371,91191,175707,524031,524031,0.000,-0.991,-0.089,81.0,0.0,0,0.0
11:37:07.685447,742,176743,107312,91149,175574,524031,524031,-0.223,-1.004,0.010,81.0,0.0,0,0.0
11:37:07.693001,743,176784,107021,91088,174400,524031,524031,-0.489,-1.068,0.064,81.0,0.0,0,0.0
11:37:07.700535,744,176667,107123,91423,173594,524031,524031,-0.222,-1.128,0.213,81.0,0.0,0,0.0
11:37:07.707515,745,176922,107294,91738,174376,524031,524031,-0.271,-0.996,-0.106,81.0,0.0,0,0.0
11:37:07.714639,746,177422,107590,92039,175986,524031,524031,-0.087,-0.900,0.027,81.0,0.0,0,0.0
11:37:07.721495,747,177841,108029,92334,177205,524031,524031,-0.088,-0.794,-0.002,81.0,0.0,0,0.0
11:37:07.859786,748,178165,108314,92513,177973,524031,524031,-0.108,-0.826,-0.069,81.0,0.0,0,0.0
11:37:07.866769,749,178391,108374,92560,178368,524031,524031,-0.243,-0.900,-0.005,81.0,0.0,0,0.0
11:37:07.873748,750,178513,108041,92366,178286,524031,524031,-0.262,-1.081,-0.073,81.0,0.0,0,0.0
11:37:07.880730,751,178382,107763,92391,177331,524031,524031,-0.395,-1.205,0.029,81.0,0.0,0,0.0
11:37:07.888709,752,178003,107672,92477,176272,524031,524031,-0.308,-1.268,-0.069,81.0,0.0,0,0.0
11:37:07.895690,753,177507,107808,92483,175927,524031,524031,-0.383,-1.032,0.003,81.0,0.0,0,0.0
11:37:08.266100,754,177071,107975,92412,175967,524031,524031,-0.397,-0.864,-0.001,81.0,0.0,0,0.0
11:37:08.273235,755,176683,108025,92292,176108,524031,524031,-0.393,-0.735,0.017,81.0,0.0,0,0.0
11:37:08.280485,756,176332,107955,92061,176233,524031,524031,-0.460,-0.802,0.103,81.0,0.0,0,0.0
11:37:08.287509,757,176144,107787,91735,175993,524031,524031,-0.531,-0.840,0.072,81.0,0.0,0,0.0
11:37:08.294631,758,176079,107232,91060,175486,524031,524031,-0.728,-1.238,-0.049,81.0,0.0,0,0.0
11:37:08.301984,759,175965,106959,90729,174969,524031,524031,-0.310,-1.157,-0.078,82.0,0.0,0,0.0
11:37:08.308234,760,175608,107359,90781,175830,524031,524031,-0.580,-0.823,0.170,82.0,0.0,0,0.0
11:37:08.316493,761,175647,106959,90356,176070,524031,524031,-0.683,-1.055,-0.196,82.0,1080.8,25,0.0
11:37:08.323685,762,175608,106694,90191,175880,524031,524031,-0.517,-0.863,0.132,82.0,0.0,0,0.0
11:37:08.330677,763,175493,106825,90233,175854,524031,524031,-0.575,-0.781,0.015,82.0,0.0,0,0.0
11:37:08.664027,764,175313,106957,90298,175745,524031,524031,-0.686,-0.704,0.025,81.0,0.0,0,0.0
11:37:08.671011,765,175137,107355,90643,175938,524031,524031,-0.473,-0.961,0.091,81.0,0.0,0,0.0
11:37:08.678023,766,174756,107185,90695,176140,524031,524031,-0.431,-1.052,0.002,81.0,0.0,0,0.0
11:37:08.685971,767,174293,106703,90307,175772,524031,524031,-0.983,-0.734,-0.076,81.0,0.0,0,0.0
11:37:08.693235,768,173984,106274,90048,175436,524031,524031,-0.693,-1.068,0.072,81.0,0.0,0,0.0
11:37:08.700218,769,173879,106156,90181,174935,524031,524031,-0.372,-1.126,0.053,81.0,0.0,0,0.0
11:37:08.708210,770,173840,106957,90879,174544,524031,524031,-0.684,-0.943,-0.140,81.0,0.0,0,0.0
11:37:08.714884,771,174292,107178,91124,175020,524031,524031,-0.533,-0.763,-0.062,81.0,0.0,0,0.0
11:37:08.722783,772,175510,107314,91363,176279,524031,524031,-0.221,-0.776,0.095,81.0,0.0,0,0.0
11:37:08.861325,773,177047,107251,91139,177560,524031,524031,-0.229,-1.000,0.031,81.0,0.0,0,0.0
11:37:08.868521,774,178507,107032,90929,178284,524031,524031,-0.234,-0.995,0.119,81.0,0.0,0,0.0
11:37:08.875504,775,179338,107012,91073,178198,524031,524031,-0.384,-1.019,0.093,81.0,0.0,0,0.0
11:37:08.882486,776,179422,106978,91359,177331,524031,524031,-0.202,-1.117,0.106,81.0,0.0,0,0.0
11:37:08.890464,777,179253,107190,91680,177065,524031,524031,-0.245,-1.014,0.009,81.0,0.0,0,0.0
11:37:08.897445,778,179131,107522,91964,177585,524031,524031,-0.271,-0.860,-0.007,81.0,0.0,0,0.0
11:37:09.265364,779,179334,107960,92213,178473,524031,524031,-0.138,-0.812,0.015,81.0,0.0,0,0.0
11:37:09.272373,780,180001,108196,92296,179362,524031,524031,-0.151,-0.892,0.083,81.0,699.2,25,0.0
11:37:09.280367,781,180894,108036,92180,179958,524031,524031,-0.278,-0.952,-0.033,81.0,0.0,0,0.0
11:37:09.287305,782,181500,107746,92072,179962,524031,524031,-0.229,-1.138,-0.092,81.0,0.0,0,0.0
11:37:09.294287,783,181417,107730,92270,179136,524031,524031,-0.380,-1.217,0.029,81.0,0.0,0,0.0
11:37:09.301267,784,181000,107851,92485,178649,524031,524031,-0.395,-1.080,0.036,81.0,0.0,0,0.0
11:37:09.309245,785,180485,108010,92560,178639,524031,524031,-0.394,-0.906,0.002,81.0,0.0,0,0.0
11:37:09.316464,786,179697,108117,92581,178442,524031,524031,-0.395,-0.783,0.004,81.0,0.0,0,0.0
11:37:09.323927,787,178866,108138,92450,178420,524031,524031,-0.321,-0.838,-0.080,81.0,0.0,0,0.0
11:37:09.331111,788,178140,108132,92234,178287,524031,524031,-0.474,-0.817,0.065,81.0,0.0,0,0.0
11:37:09.462475,789,177840,107758,91622,177899,524031,524031,-0.760,-0.972,-0.053,81.0,0.0,0,0.0
11:37:09.469512,790,177516,106748,90539,177048,524031,524031,-0.528,-1.109,-0.185,81.0,0.0,0,0.0
11:37:09.476352,791,176851,106939,90532,177438,524031,524031,-0.470,-0.839,0.210,81.0,0.0,0,0.0
11:37:09.483922,792,176456,106739,89919,177638,524031,524031,-1.060,-0.836,-0.020,81.0,0.0,0,0.0
11:37:09.490214,793,176294,106619,89808,177695,524031,524031,-0.569,-0.954,-0.055,81.0,0.0,0,0.0
11:37:09.867494,794,176032,106590,89955,177685,524031,524031,-0.324,-0.882,0.063,80.0,0.0,0,0.0
11:37:09.875410,795,175731,106586,89806,177395,524031,524031,-0.781,-0.668,0.017,80.0,0.0,0,0.0
11:37:09.882601,796,175448,106791,89866,177301,524031,524031,-0.652,-0.625,0.199,80.0,784.1,25,0.0
11:37:09.890204,797,174967,107137,90277,177462,524031,524031,-0.440,-0.903,-0.140,80.0,0.0,0,0.0
11:37:09.896517,798,174520,106720,89971,177272,524031,524031,-0.634,-0.927,0.067,80.0,0.0,0,0.0
11:37:09.904636,799,174075,106201,89385,176760,524031,524031,-0.883,-0.830,0.044,80.0,0.0,0,0.0
11:37:09.911904,800,173788,105967,89301,176408,524031,524031,-0.771,-1.079,-0.170,80.0,0.0,0,0.0
11:37:09.918888,801,173689,105923,89305,176018,524031,524031,-0.535,-0.788,0.145,80.0,0.0,0,0.0
11:37:09.926102,802,173611,106070,89289,175936,524031,524031,-0.600,-0.864,0.046,80.0,0.0,0,0.0
11:37:09.932997,803,173607,105878,89036,175409,524031,524031,-0.579,-0.786,-0.109,80.0,0.0,0,0.0
11:37:10.063033,804,173502,106048,89055,175305,524031,524031,-0.360,-0.879,0.071,80.0,0.0,0,0.0
11:37:10.073006,805,173615,106126,89038,175330,524031,524031,-0.211,-1.016,-0.059,80.0,0.0,0,0.0
11:37:10.079987,806,173829,105875,88894,174724,524031,524031,-0.385,-1.049,-0.032,80.0,0.0,0,0.0
11:37:10.086968,807,174243,105961,89218,173794,524031,524031,-0.302,-1.004,0.035,80.0,0.0,0,0.0
11:37:10.095018,808,175136,106239,89647,173301,524031,524031,-0.135,-1.107,0.028,80.0,0.0,0,0.0
11:37:10.260464,809,176353,106451,89907,172914,524031,524031,-0.234,-1.015,0.016,80.0,0.0,0,0.0
11:37:10.267601,810,177478,106767,90158,173363,524031,524031,-0.229,-0.822,0.035,80.0,0.0,0,0.0
11:37:10.275144,811,178366,107255,90508,174523,524031,524031,-0.085,-0.773,-0.052,80.0,535.1,25,0.0
11:37:10.282125,812,178641,107725,90737,175497,524031,524031,-0.079,-0.774,0.023,80.0,0.0,0,0.0
11:37:10.289108,813,178545,107752,90601,175909,524031,524031,-0.240,-0.932,-0.057,80.0,0.0,0,0.0
11:37:10.460183,814,178293,107246,90241,175411,524031,524031,-0.099,-1.166,-0.042,80.0,0.0,0,0.0
11:37:10.468161,815,177622,106678,89890,173878,524031,524031,-0.327,-1.213,0.032,80.0,0.0,0,0.0
11:37:10.475142,816,176530,106405,89841,172473,524031,524031,-0.405,-1.134,-0.012,80.0,0.0,0,0.0
11:37:10.482124,817,175635,106481,89911,172352,524031,524031,-0.474,-0.904,-0.010,80.0,0.0,0,0.0
11:37:10.489105,818,175004,106873,90154,172464,524031,524031,-0.446,-0.768,0.007,80.0,0.0,0,0.0
11:37:10.867466,819,174675,107572,90614,172935,524031,524031,-0.295,-0.810,-0.071,80.0,0.0,0,0.0
11:37:10.874446,820,174586,108250,91047,173436,524031,524031,-0.444,-0.868,-0.061,80.0,0.0,0,0.0
11:37:10.881428,821,174537,107912,90581,173609,524031,524031,-0.498,-1.060,-0.052,80.0,0.0,0,0.0
11:37:10.889218,822,174438,107226,89723,173273,524031,524031,-0.960,-0.955,-0.059,80.0,511.0,25,0.0
11:37:10.895478,823,174195,107232,89618,173706,524031,524031,-0.548,-0.872,0.053,80.0,0.0,0,0.0
11:37:10.903390,824,173862,107031,89140,173903,524031,524031,-0.950,-0.878,0.059,80.0,0.0,0,0.0
11:37:10.910797,825,173628,106575,88676,173746,524031,524031,-0.525,-0.938,-0.007,80.0,0.0,0,0.0
11:37:10.917134,826,173233,106423,88665,173646,524031,524031,-0.461,-0.795,-0.043,80.0,0.0,0,0.0
11:37:10.924383,827,172741,106210,88420,173421,524031,524031,-0.802,-0.625,-0.015,80.0,0.0,0,0.0
11:37:10.932324,828,172230,106493,88676,173301,524031,524031,-0.656,-0.513,0.062,80.0,0.0,0,0.0
11:37:11.062290,829,171725,107305,89546,173633,524031,524031,-0.458,-0.892,0.090,80.0,0.0,0,0.0
11:37:11.069573,830,171425,107251,89395,173608,524031,524031,-0.917,-0.815,-0.100,80.0,0.0,0,0.0
11:37:11.076378,831,171157,106820,88935,173363,524031,524031,-0.885,-1.025,0.176,80.0,0.0,0,0.0
11:37:11.083938,832,170970,107027,89256,173395,524031,524031,-0.680,-1.084,-0.047,80.0,0.0,0,0.0
11:37:11.090477,833,170775,106396,88637,173062,524031,524031,-0.640,-0.791,0.138,80.0,0.0,0,0.0
11:37:11.261769,834,170798,106423,88786,172492,524031,524031,-0.691,-0.825,-0.022,80.0,0.0,0,0.0
11:37:11.269443,835,170902,106620,89072,171843,524031,524031,-0.507,-0.820,-0.010,80.0,354.2,25,0.0
11:37:11.276448,836,170708,106972,89189,171874,524031,524031,-0.338,-0.733,0.087,80.0,0.0,0,0.0
11:37:11.284135,837,170625,106770,88850,171898,524031,524031,-0.180,-1.012,-0.141,80.0,0.0,0,0.0
11:37:11.290368,838,170677,106243,88444,171280,524031,524031,-0.359,-0.997,0.038,80.0,0.0,0,0.0
11:37:11.460904,839,170953,105961,88428,169983,524031,524031,-0.397,-1.036,0.071,81.0,0.0,0,0.0
11:37:11.467885,840,170969,106087,88846,168639,524031,524031,-0.099,-1.191,0.116,81.0,0.0,0,0.0
11:37:11.474867,841,171012,106387,89329,168152,524031,524031,-0.211,-1.045,0.075,81.0,0.0,0,0.0
11:37:11.481848,842,171464,106702,89734,168825,524031,524031,-0.263,-0.824,0.016,81.0,0.0,0,0.0
11:37:11.491379,843,172176,107186,90145,170019,524031,524031,-0.086,-0.790,0.027,81.0,0.0,0,0.0
11:37:11.868556,844,172707,107627,90431,170863,524031,524031,-0.020,-0.767,-0.018,81.0,432.4,25,0.0
11:37:11.875569,845,173124,107770,90444,171506,524031,524031,-0.064,-0.843,0.000,81.0,0.0,0,0.0
11:37:11.882549,846,173445,107225,90091,171642,524031,524031,-0.055,-1.108,-0.057,81.0,0.0,0,0.0
11:37:11.889500,847,173262,106577,89826,170409,524031,524031,-0.267,-1.220,0.097,81.0,0.0,0,0.0
11:37:11.896481,848,172543,106394,89895,168294,524031,524031,-0.346,-1.260,0.028,81.0,0.0,0,0.0
11:37:11.904355,849,172073,106562,90080,168388,524031,524031,-0.311,-0.993,-0.026,81.0,0.0,0,0.0
11:37:11.911570,850,171914,106812,90198,169061,524031,524031,-0.322,-0.825,0.007,81.0,0.0,0,0.0
11:37:11.918055,851,171906,107003,90168,169641,524031,524031,-0.239,-0.818,-0.083,81.0,0.0,0,0.0
11:37:11.925360,852,171830,107232,90208,170034,524031,524031,-0.245,-0.815,-0.040,81.0,0.0,0,0.0
11:37:11.933200,853,171745,107238,89964,170023,524031,524031,-0.615,-0.864,0.010,81.0,0.0,0,0.0
11:37:12.061436,854,171890,107064,89584,169678,524031,524031,-0.447,-1.003,-0.015,81.0,0.0,0,0.0
11:37:12.068704,855,171869,106790,89206,169425,524031,524031,-0.742,-0.996,-0.049,81.0,0.0,0,0.0
11:37:12.075570,856,171886,106827,89103,169758,524031,524031,-0.650,-0.891,0.094,81.0,0.0,0,0.0
11:37:12.083893,857,171938,106872,89010,170377,524031,524031,-0.647,-0.998,-0.022,81.0,0.0,0,0.0
11:37:12.091317,858,172041,106449,88689,170309,524031,524031,-0.484,-0.955,0.022,81.0,0.0,0,0.0
11:37:12.261587,859,171873,106333,88629,170064,524031,524031,-0.464,-0.816,-0.074,81.0,652.3,25,0.0
11:37:12.268567,860,171629,106554,88702,170162,524031,524031,-0.751,-0.534,-0.136,81.0,0.0,0,0.0
11:37:12.275973,861,171492,106906,88900,170448,524031,524031,-0.631,-0.753,0.012,81.0,0.0,0,0.0
11:37:12.283548,862,171288,107332,89185,171032,524031,524031,-0.363,-0.840,-0.074,81.0,0.0,0,0.0
11:37:12.291507,863,170991,107353,89049,171292,524031,524031,-0.755,-0.898,-0.036,81.0,0.0,0,0.0
11:37:12.461793,864,170748,106991,88564,170792,524031,524031,-1.022,-0.886,-0.069,81.0,0.0,0,0.0
11:37:12.469845,865,170510,107163,88951,171105,524031,524031,-0.681,-0.970,0.168,81.0,0.0,0,0.0
11:37:12.476345,866,170285,106753,88724,171265,524031,524031,-0.629,-0.846,0.155,81.0,0.0,0,0.0
11:37:12.484326,867,170015,106217,88324,170833,524031,524031,-0.883,-0.835,0.028,81.0,0.0,0,0.0
11:37:12.492261,868,169932,105794,88089,170231,524031,524031,-0.725,-0.665,0.064,81.0,0.0,0,0.0
11:37:12.868449,869,169916,105829,88008,169916,524031,524031,-0.536,-0.819,0.075,81.0,0.0,0,0.0
11:37:12.875356,870,170054,105811,87995,169883,524031,524031,-0.105,-1.040,-0.296,81.0,421.7,25,0.0
11:37:12.883306,871,170060,106330,88393,169991,524031,524031,-0.359,-0.875,0.254,81.0,0.0,0,0.0
11:37:12.890451,872,170451,106387,88374,170307,524031,524031,-0.590,-1.020,-0.394,81.0,0.0,0,0.0
11:37:12.897349,873,170914,105943,88128,169853,524031,524031,-0.305,-0.996,0.162,81.0,0.0,0,0.0
11:37:12.904357,874,171422,105955,88248,169191,524031,524031,-0.250,-1.159,0.046,81.0,0.0,0,0.0
11:37:12.911436,875,171758,105905,88353,168540,524031,524031,-0.319,-1.034,-0.030,81.0,0.0,0,0.0
11:37:12.918687,876,171743,106010,88519,168392,524031,524031,-0.343,-0.820,0.052,81.0,0.0,0,0.0
11:37:12.926441,877,171629,106277,88779,168685,524031,524031,-0.210,-0.814,-0.104,81.0,0.0,0,0.0
11:37:12.933691,878,171435,106598,88985,168767,524031,524031,-0.135,-0.785,0.050,81.0,0.0,0,0.0
11:37:13.062133,879,171329,106836,89097,168709,524031,524031,-0.267,-0.900,-0.066,80.0,0.0,0,0.0
11:37:13.068429,880,171239,106488,88865,168360,524031,524031,-0.280,-0.931,-0.225,80.0,0.0,0,0.0
11:37:13.076337,881,171087,106259,88753,167809,524031,524031,-0.136,-1.131,-0.049,80.0,0.0,0,0.0
11:37:13.083321,882,170767,105991,88613,166779,524031,524031,-0.334,-1.144,0.018,80.0,0.0,0,0.0
11:37:13.091299,883,170337,105960,88661,165970,524031,524031,-0.511,-1.014,-0.013,80.0,0.0,0,0.0
11:37:13.261949,884,170041,106222,88892,165991,524031,524031,-0.498,-0.830,-0.048,80.0,0.0,0,0.0
11:37:13.268930,885,169927,106579,89113,166385,524031,524031,-0.389,-0.821,-0.070,80.0,0.0,0,0.0
11:37:13.275911,886,169772,106899,89181,166684,524031,524031,-0.477,-0.872,-0.043,80.0,0.0,0,0.0
11:37:13.283401,887,169747,106961,89086,166916,524031,524031,-0.515,-0.848,-0.137,80.0,0.0,0,0.0
11:37:13.291380,888,169831,106746,88723,166870,524031,524031,-0.793,-0.990,0.020,80.0,0.0,0,0.0
11:37:13.461436,889,169984,106828,88632,167059,524031,524031,-0.554,-0.906,-0.114,80.0,0.0,0,0.0
11:37:13.468417,890,169994,107122,88663,167668,524031,524031,-0.765,-0.880,-0.070,80.0,0.0,0,0.0
11:37:13.475398,891,170086,106985,88280,167740,524031,524031,-0.837,-0.886,-0.083,80.0,0.0,0,0.0
11:37:13.482381,892,170085,106643,88027,167768,524031,524031,-0.426,-0.895,0.074,80.0,0.0,0,0.0
11:37:13.490358,893,169877,106627,87972,167806,524031,524031,-0.643,-0.709,-0.034,80.0,0.0,0,0.0
11:37:13.666346,894,169763,106791,87991,167799,524031,524031,-0.898,-0.597,0.004,80.0,940.7,25,0.0
11:37:13.673481,895,169597,107319,88490,168121,524031,524031,-0.593,-0.650,0.043,80.0,0.0,0,0.0
11:37:13.680427,896,169295,107758,89065,168544,524031,524031,-0.500,-0.875,-0.241,80.0,0.0,0,0.0
11:37:13.687320,897,168806,107574,88869,168531,524031,524031,-0.885,-0.735,0.002,80.0,0.0,0,0.0
11:37:13.694339,898,168384,107656,88744,168309,524031,524031,-1.025,-0.645,0.063,80.0,0.0,0,0.0
11:37:13.867318,899,168075,107786,88991,168348,524031,524031,-0.739,-0.772,0.229,79.0,0.0,0,0.0
11:37:13.874277,900,167829,107393,88651,168236,524031,524031,-0.776,-0.864,-0.075,79.0,0.0,0,0.0
11:37:13.881406,901,167578,106769,88024,167969,524031,524031,-0.834,-0.772,-0.074,79.0,0.0,0,0.0
11:37:13.888423,902,167408,106303,87672,167633,524031,524031,-0.650,-0.834,-0.153,79.0,0.0,0,0.0
11:37:13.895333,903,167287,106098,87569,167277,524031,524031,-0.620,-0.688,-0.074,79.0,0.0,0,0.0
11:37:14.062519,904,167184,106080,87376,166914,524031,524031,-0.632,-0.775,-0.041,79.0,0.0,0,0.0
11:37:14.069490,905,167162,105924,87054,166527,524031,524031,-0.535,-0.920,0.010,79.0,0.0,0,0.0
11:37:14.076334,906,167255,105607,86793,166064,524031,524031,-0.499,-1.024,-0.029,79.0,0.0,0,0.0
11:37:14.084321,907,167448,105439,86839,165263,524031,524031,-0.431,-1.032,-0.157,79.0,0.0,0,0.0
11:37:14.091481,908,167520,105363,86959,164562,524031,524031,-0.284,-1.063,0.046,79.0,0.0,0,0.0
11:37:14.263719,909,167619,105438,87132,164084,524031,524031,-0.371,-1.020,-0.103,79.0,0.0,0,0.0
11:37:14.270871,910,167586,105506,87352,163684,524031,524031,-0.271,-0.879,-0.014,79.0,0.0,0,0.0
11:37:14.278328,911,167494,105861,87668,163677,524031,524031,-0.167,-0.777,-0.037,79.0,0.0,0,0.0
11:37:14.285328,912,167404,106195,87869,163650,524031,524031,-0.239,-0.792,0.039,79.0,0.0,0,0.0
11:37:14.292765,913,167358,106460,88031,163570,524031,524031,-0.263,-0.841,-0.003,79.0,0.0,0,0.0
11:37:14.463899,914,167392,106494,88013,163552,524031,524031,-0.149,-1.001,-0.159,79.0,0.0,0,0.0
11:37:14.471477,915,167293,106041,87673,162988,524031,524031,-0.276,-1.069,0.090,79.0,0.0,0,0.0
11:37:14.478458,916,167002,105426,87316,161846,524031,524031,-0.391,-1.139,-0.017,79.0,0.0,0,0.0
11:37:14.485438,917,166619,105500,87546,161320,524031,524031,-0.397,-0.939,-0.011,79.0,0.0,0,0.0
11:37:14.492418,918,166417,105908,87876,161501,524031,524031,-0.438,-0.801,-0.076,79.0,0.0,0,0.0
11:37:14.663716,919,166304,106109,87990,161704,524031,524031,-0.267,-0.957,-0.069,79.0,0.0,0,0.0
11:37:14.671449,920,166157,106351,88134,161781,524031,524031,-0.483,-0.860,0.091,79.0,0.0,0,0.0
11:37:14.679102,921,166200,106293,87909,161790,524031,524031,-0.705,-1.036,-0.002,79.0,0.0,0,0.0
11:37:14.686371,922,166330,106049,87605,161746,524031,524031,-0.718,-0.970,-0.187,79.0,1139.1,25,0.0
11:37:14.694061,923,166317,106494,87855,162481,524031,524031,-0.465,-0.965,-0.115,79.0,0.0,0,0.0
11:37:14.862744,924,166316,106694,87680,162757,524031,524031,-0.961,-0.845,0.045,79.0,0.0,0,0.0
11:37:14.869899,925,166773,106250,87287,162679,524031,524031,-0.466,-1.037,-0.016,79.0,0.0,0,0.0
11:37:14.877362,926,166855,105931,87082,162548,524031,524031,-0.470,-0.758,0.151,79.0,0.0,0,0.0
11:37:14.884303,927,166819,106023,86981,162444,524031,524031,-0.988,-0.556,0.008,79.0,0.0,0,0.0
11:37:14.892064,928,166788,106250,87265,162624,524031,524031,-0.560,-0.708,0.022,79.0,0.0,0,0.0
11:37:15.063329,929,166414,106660,87868,163135,524031,524031,-0.508,-0.864,-0.006,78.0,0.0,0,0.0
11:37:15.070339,930,166164,106694,87810,163282,524031,524031,-0.787,-0.755,0.174,78.0,0.0,0,0.0
11:37:15.077320,931,165993,106190,87382,163335,524031,524031,-0.653,-0.978,0.054,78.0,332.4,25,0.0
11:37:15.084270,932,166160,105279,86443,162701,524031,524031,-0.834,-0.941,0.066,78.0,0.0,0,0.0
11:37:15.091225,933,166656,105491,86978,161784,524031,524031,-0.727,-0.994,0.030,78.0,0.0,0,0.0
11:37:15.263667,934,167127,105188,87126,161342,524031,524031,-0.572,-0.896,-0.027,78.0,0.0,0,0.0
11:37:15.270649,935,167583,105037,87004,161164,524031,524031,-0.565,-0.777,0.062,78.0,0.0,0,0.0
11:37:15.277630,936,167967,104950,86956,161386,524031,524031,-0.281,-0.868,-0.022,78.0,0.0,0,0.0
11:37:15.284611,937,168536,105133,87185,161675,524031,524031,-0.144,-0.833,-0.012,78.0,0.0,0,0.0
11:37:15.292148,938,169220,105260,87333,161770,524031,524031,-0.275,-1.056,0.083,78.0,0.0,0,0.0
11:37:15.463339,939,169911,105460,87723,161630,524031,524031,-0.251,-1.074,-0.007,78.0,0.0,0,0.0
11:37:15.470492,940,169952,105745,88220,161303,524031,524031,-0.064,-1.180,0.207,78.0,0.0,0,0.0
11:37:15.477356,941,169826,106138,88681,161554,524031,524031,-0.137,-1.036,0.024,78.0,0.0,0,0.0
11:37:15.484285,942,169711,106525,89111,162361,524031,524031,-0.210,-0.799,0.130,78.0,0.0,0,0.0
11:37:15.491995,943,169762,107103,89564,163461,524031,524031,-0.222,-0.790,-0.002,78.0,0.0,0,0.0
11:37:15.666947,944,169946,107515,89839,164447,524031,524031,-0.132,-0.854,-0.024,78.0,0.0,0,0.0
11:37:15.673929,945,170182,107520,89770,165134,524031,524031,-0.071,-1.050,-0.061,78.0,0.0,0,0.0
11:37:15.680840,946,170102,106730,89194,164813,524031,524031,-0.361,-1.138,0.101,78.0,0.0,0,0.0
11:37:15.688273,947,169621,106125,88913,162759,524031,524031,-0.262,-1.306,0.190,78.0,0.0,0,0.0
11:37:15.695304,948,169027,106474,89408,162164,524031,524031,-0.322,-0.970,-0.035,78.0,0.0,0,0.0
11:37:15.869139,949,168974,106780,89650,163204,524031,524031,-0.324,-0.864,0.016,78.0,0.0,0,0.0
11:37:15.877944,950,168956,107094,89861,163835,524031,524031,-0.250,-0.838,-0.046,78.0,0.0,0,0.0
11:37:15.884292,951,168794,107389,89898,164378,524031,524031,-0.300,-0.799,0.017,78.0,0.0,0,0.0
11:37:15.891407,952,168758,107131,89345,164216,524031,524031,-0.583,-0.979,-0.102,78.0,0.0,0,0.0
11:37:15.901175,953,168783,106505,88711,163341,524031,524031,-0.650,-1.165,-0.065,78.0,0.0,0,0.0
11:37:16.064292,954,168488,106492,88599,162444,524031,524031,-0.403,-1.068,0.066,78.0,0.0,0,0.0
11:37:16.071390,955,168375,106714,88450,163077,524031,524031,-0.628,-0.886,0.144,78.0,0.0,0,0.0
11:37:16.078121,956,168422,106480,87998,163075,524031,524031,-0.681,-0.982,-0.020,78.0,0.0,0,0.0
11:37:16.085289,957,168144,106170,87896,162775,524031,524031,-0.236,-0.906,-0.090,78.0,0.0,0,0.0
11:37:16.092225,958,167635,106341,88024,162716,524031,524031,-0.439,-0.653,-0.053,78.0,0.0,0,0.0
11:37:16.270250,959,167287,106621,88147,162695,524031,524031,-0.716,-0.679,-0.011,78.0,0.0,0,0.0
11:37:16.278392,960,167068,107066,88468,163114,524031,524031,-0.519,-0.854,0.004,78.0,0.0,0,0.0
11:37:16.286391,961,166785,107026,88470,163734,524031,524031,-0.541,-1.022,-0.021,78.0,0.0,0,0.0
11:37:16.293878,962,166534,106669,88118,163910,524031,524031,-0.838,-0.984,0.158,78.0,0.0,0,0.0
11:37:16.300861,963,166185,106010,87712,163796,524031,524031,-0.707,-0.926,0.180,78.0,1278.0,25,0.0
11:37:16.467429,964,165831,105636,87580,163582,524031,524031,-0.697,-0.904,0.076,77.0,0.0,0,0.0
11:37:16.474283,965,165506,105965,87938,163443,524031,524031,-0.585,-0.943,-0.221,77.0,0.0,0,0.0
11:37:16.481425,966,165193,106608,88127,163440,524031,524031,-0.522,-0.806,-0.073,77.0,0.0,0,0.0
11:37:16.488484,967,165004,106993,87935,163753,524031,524031,-0.486,-0.867,-0.076,77.0,0.0,0,0.0
11:37:16.495498,968,164877,106994,87647,164088,524031,524031,-0.260,-0.928,0.066,77.0,0.0,0,0.0
11:37:16.666316,969,165348,106934,87652,163991,524031,524031,-0.271,-1.000,0.020,77.0,0.0,0,0.0
11:37:16.673614,970,166082,106824,87831,163466,524031,524031,-0.312,-1.012,-0.031,77.0,0.0,0,0.0
11:37:16.680793,971,166669,106718,88075,162874,524031,524031,-0.209,-1.121,0.037,77.0,0.0,0,0.0
11:37:16.687774,972,167060,106735,88438,162529,524031,524031,-0.143,-1.117,0.113,77.0,0.0,0,0.0
11:37:16.695275,973,167364,106959,88879,162988,524031,524031,-0.243,-0.910,0.114,77.0,0.0,0,0.0
11:37:16.865050,974,167887,107364,89295,164491,524031,524031,-0.152,-0.770,0.019,77.0,0.0,0,0.0
11:37:16.872089,975,168358,107718,89581,166060,524031,524031,-0.131,-0.770,-0.106,77.0,0.0,0,0.0
11:37:16.879073,976,168675,107864,89700,167305,524031,524031,-0.156,-0.864,-0.063,77.0,0.0,0,0.0
11:37:16.886324,977,169151,107608,89567,168164,524031,524031,-0.140,-1.059,-0.102,77.0,0.0,0,0.0
11:37:16.893715,978,169475,107042,89449,167938,524031,524031,-0.257,-1.196,0.021,77.0,0.0,0,0.0
11:37:17.068866,979,169049,106831,89848,166110,524031,524031,-0.347,-1.244,0.133,77.0,0.0,0,0.0
11:37:17.075261,980,168576,107010,90133,166088,524031,524031,-0.450,-0.958,-0.061,77.0,0.0,0,0.0
11:37:17.083418,981,168516,107408,90283,167370,524031,524031,-0.429,-0.773,-0.008,77.0,0.0,0,0.0
11:37:17.090618,982,168430,107649,90284,168319,524031,524031,-0.275,-0.913,-0.006,77.0,0.0,0,0.0
11:37:17.097263,983,168317,107620,90094,168401,524031,524031,-0.489,-0.900,-0.062,77.0,0.0,0,0.0
11:37:17.267350,984,168264,107347,89827,167802,524031,524031,-0.469,-1.002,0.093,77.0,0.0,0,0.0
11:37:17.274269,985,168107,106837,89317,167038,524031,524031,-0.729,-0.990,-0.112,77.0,0.0,0,0.0
11:37:17.281710,986,167568,106673,88972,167188,524031,524031,-0.269,-0.959,-0.080,77.0,0.0,0,0.0
11:37:17.288968,987,166977,106732,88656,167284,524031,524031,-0.784,-0.908,0.072,77.0,0.0,0,0.0
11:37:17.295262,988,166789,106628,88420,167001,524031,524031,-0.697,-0.971,-0.026,77.0,0.0,0,0.0
11:37:17.464443,989,166447,106562,88348,166564,524031,524031,-0.268,-0.895,0.116,77.0,0.0,0,0.0
11:37:17.471425,990,165921,106781,88420,166421,524031,524031,-0.442,-0.721,-0.006,77.0,0.0,0,0.0
11:37:17.478405,991,165446,106967,88210,166312,524031,524031,-0.892,-0.647,0.038,77.0,0.0,0,0.0
11:37:17.486055,992,165135,107373,88514,166655,524031,524031,-0.382,-0.848,-0.029,77.0,0.0,0,0.0
11:37:17.493214,993,164739,107227,88458,167152,524031,524031,-0.394,-1.116,-0.006,77.0,0.0,0,0.0
11:37:17.665759,994,164483,106477,87551,166944,524031,524031,-0.988,-0.952,-0.017,77.0,1326.3,25,0.0
11:37:17.671805,995,164043,105644,87046,166572,524031,524031,-0.658,-1.104,0.004,77.0,0.0,0,0.0
11:37:17.679262,996,163254,105530,86978,166235,524031,524031,-0.623,-0.885,0.146,77.0,0.0,0,0.0
11:37:17.686242,997,162628,105308,86818,165550,524031,524031,-0.637,-0.880,-0.014,77.0,0.0,0,0.0
11:37:17.693224,998,162386,105132,86742,164742,524031,524031,-0.532,-0.888,-0.124,77.0,0.0,0,0.0
11:37:17.865147,999,162270,105432,87010,164289,524031,524031,-0.422,-0.893,0.039,77.0,0.0,0,0.0
11:37:17.873126,1000,162396,105844,87311,164489,524031,524031,-0.194,-0.925,-0.021,77.0,0.0,0,0.0
11:37:17.879853,1001,162868,106252,87632,164790,524031,524031,-0.246,-1.058,-0.009,77.0,0.0,0,0.0
11:37:17.886866,1002,163775,106494,88045,164873,524031,524031,-0.325,-1.044,-0.113,77.0,0.0,0,0.0
11:37:17.894811,1003,164506,106659,88555,164649,524031,524031,-0.072,-1.159,0.163,77.0,0.0,0,0.0
11:37:18.065488,1004,164870,106811,89025,164616,524031,524031,-0.118,-1.106,0.031,77.0,0.0,0,0.0
11:37:18.072469,1005,164839,106845,89288,165267,524031,524031,-0.210,-0.903,0.033,77.0,0.0,0,0.0
11:37:18.079502,1006,165040,107279,89682,166575,524031,524031,-0.142,-0.768,-0.024,77.0,0.0,0,0.0
11:37:18.086245,1007,166715,108019,90141,168308,524031,524031,-0.053,-0.764,-0.008,77.0,0.0,0,0.0
11:37:18.094347,1008,169380,108520,90397,170965,524031,524031,-0.045,-0.814,0.001,77.0,0.0,0,0.0
11:37:18.265667,1009,172311,108553,90415,173534,524031,524031,-0.212,-1.014,-0.046,77.0,0.0,0,0.0
11:37:18.273645,1010,174357,107969,90359,174165,524031,524031,-0.229,-1.130,-0.107,77.0,0.0,0,0.0
11:37:18.281624,1011,173757,107710,90695,172168,524031,524031,-0.266,-1.284,0.070,77.0,226.0,25,0.0
11:37:18.290076,1012,172370,107818,90991,171456,524031,524031,-0.476,-1.003,-0.051,77.0,0.0,0,0.0
11:37:18.297059,1013,171668,108098,91110,172332,524031,524031,-0.499,-0.800,0.028,77.0,0.0,0,0.0
11:37:18.465512,1014,171087,108248,91086,173273,524031,524031,-0.331,-0.888,-0.097,77.0,0.0,0,0.0
11:37:18.472683,1015,170281,108055,90698,173431,524031,524031,-0.362,-0.875,-0.179,77.0,0.0,0,0.0
11:37:18.479378,1016,169422,107779,90087,173007,524031,524031,-0.464,-0.937,-0.066,77.0,0.0,0,0.0
11:37:18.486625,1017,168850,107420,89460,172047,524031,524031,-0.786,-0.976,-0.148,77.0,0.0,0,0.0
11:37:18.494603,1018,168564,107489,89295,171618,524031,524031,-0.473,-1.008,-0.135,77.0,0.0,0,0.0
11:37:18.665590,1019,168296,107871,89238,171812,524031,524031,-0.635,-0.839,-0.069,77.0,0.0,0,0.0
11:37:18.672603,1020,168193,107872,88904,171714,524031,524031,-0.884,-0.985,-0.046,77.0,0.0,0,0.0
11:37:18.680620,1021,168158,107396,88415,171249,524031,524031,-0.531,-0.893,-0.106,77.0,0.0,0,0.0
11:37:18.687604,1022,167951,107159,88243,170978,524031,524031,-0.404,-0.787,-0.142,77.0,0.0,0,0.0
11:37:18.694585,1023,167604,107206,88180,170981,524031,524031,-0.683,-0.653,-0.086,77.0,0.0,0,0.0
11:37:18.865240,1024,167263,107431,88304,171087,524031,524031,-0.792,-0.667,-0.052,77.0,0.0,0,0.0
11:37:18.873284,1025,166650,107573,88581,171316,524031,524031,-0.432,-0.854,-0.108,77.0,0.0,0,0.0
11:37:18.880268,1026,165683,107461,88561,171239,524031,524031,-0.753,-0.861,0.121,77.0,0.0,0,0.0
11:37:18.887231,1027,165059,107258,88322,170950,524031,524031,-0.867,-0.989,-0.005,77.0,0.0,0,0.0
11:37:18.894238,1028,164587,106709,88191,170781,524031,524031,-0.627,-1.126,-0.064,77.0,0.0,0,0.0
11:37:19.065231,1029,164216,106234,87967,170560,524031,524031,-0.773,-0.869,-0.035,77.0,0.0,0,0.0
11:37:19.072725,1030,163952,106124,87917,170458,524031,524031,-0.536,-0.745,0.122,77.0,0.0,0,0.0
11:37:19.080378,1031,163983,105772,87685,169979,524031,524031,-0.631,-0.897,-0.130,77.0,0.0,0,0.0
11:37:19.087284,1032,164123,105502,87437,169360,524031,524031,-0.471,-0.844,0.063,77.0,0.0,0,0.0
11:37:19.094264,1033,164246,105521,87500,168926,524031,524031,-0.293,-0.882,0.039,77.0,0.0,0,0.0
11:37:19.269556,1034,164530,105819,88018,168096,524031,524031,-0.418,-1.006,-0.047,77.0,0.0,0,0.0
11:37:19.278531,1035,164546,106047,88502,167157,524031,524031,-0.395,-1.034,0.019,77.0,0.0,0,0.0
11:37:19.286538,1036,164451,106444,88975,166634,524031,524031,-0.184,-1.063,0.075,77.0,0.0,0,0.0
11:37:19.293520,1037,164532,106784,89358,166686,524031,524031,-0.107,-1.052,0.004,77.0,0.0,0,0.0
11:37:19.300501,1038,164610,106999,89605,166818,524031,524031,-0.201,-0.978,0.015,77.0,0.0,0,0.0
11:37:19.465203,1039,164687,107177,89794,167164,524031,524031,-0.249,-0.823,0.046,76.0,0.0,0,0.0
11:37:19.473181,1040,164915,107528,90024,167864,524031,524031,-0.149,-0.798,0.020,76.0,0.0,0,0.0
11:37:19.481161,1041,165375,107917,90228,168655,524031,524031,-0.075,-0.802,0.012,76.0,0.0,0,0.0
11:37:19.488143,1042,166029,108004,90248,169371,524031,524031,-0.181,-0.916,-0.090,76.0,0.0,0,0.0
11:37:19.495100,1043,166750,107673,90058,169798,524031,524031,-0.247,-1.183,-0.064,76.0,0.0,0,0.0
11:37:19.667344,1044,166841,107157,90023,168943,524031,524031,-0.273,-1.276,0.065,76.0,0.0,0,0.0
11:37:19.675175,1045,166192,107116,90244,167915,524031,524031,-0.306,-1.202,-0.008,76.0,1529.6,25,0.0
11:37:19.682568,1046,165932,107314,90430,168699,524031,524031,-0.477,-0.931,0.053,76.0,0.0,0,0.0
11:37:19.689224,1047,166075,107535,90523,169751,524031,524031,-0.432,-0.778,-0.038,76.0,0.0,0,0.0
11:37:19.697324,1048,166229,107674,90482,170547,524031,524031,-0.238,-0.842,-0.022,76.0,0.0,0,0.0
11:37:19.869750,1049,166244,107704,90352,170703,524031,524031,-0.259,-0.871,-0.072,76.0,0.0,0,0.0
11:37:19.876333,1050,166308,107701,90283,170230,524031,524031,-0.379,-0.958,0.020,76.0,0.0,0,0.0
11:37:19.884210,1051,166417,107487,89997,169370,524031,524031,-0.737,-0.998,-0.037,76.0,0.0,0,0.0
11:37:19.891599,1052,166485,107567,89883,169282,524031,524031,-0.681,-0.938,0.005,76.0,0.0,0,0.0
11:37:19.898261,1053,166617,107492,89599,170033,524031,524031,-0.458,-1.029,-0.111,76.0,0.0,0,0.0
11:37:20.070905,1054,166515,107266,89138,170400,524031,524031,-0.851,-0.884,-0.006,76.0,0.0,0,0.0
11:37:20.077242,1055,166403,107110,88912,170298,524031,524031,-0.551,-0.914,0.023,76.0,0.0,0,0.0
11:37:20.085205,1056,166045,107108,88865,170252,524031,524031,-0.418,-0.841,0.000,76.0,0.0,0,0.0
11:37:20.091358,1057,165707,107327,88786,170245,524031,524031,-0.917,-0.579,0.071,76.0,0.0,0,0.0
11:37:20.099552,1058,165562,107666,88976,170418,524031,524031,-0.534,-0.742,-0.027,76.0,0.0,0,0.0
11:37:20.273239,1059,165241,108090,89420,170988,524031,524031,-0.370,-0.933,-0.056,76.0,0.0,0,0.0
11:37:20.280224,1060,164976,107647,88817,170922,524031,524031,-0.907,-0.823,0.135,76.0,0.0,0,0.0
11:37:20.288194,1061,164742,107022,88250,170643,524031,524031,-0.826,-0.999,0.047,76.0,0.0,0,0.0
11:37:20.296173,1062,164715,107115,88459,170622,524031,524031,-0.646,-1.003,-0.011,76.0,0.0,0,0.0
11:37:20.304150,1063,164647,107265,88610,170186,524031,524031,-0.637,-0.885,0.111,76.0,0.0,0,0.0
11:37:20.466371,1064,164607,107177,88623,169627,524031,524031,-0.705,-0.881,-0.107,76.0,0.0,0,0.0
11:37:20.473321,1065,164555,107115,88754,168884,524031,524031,-0.579,-0.860,-0.109,76.0,0.0,0,0.0
11:37:20.480301,1066,164426,107253,88914,168842,524031,524031,-0.311,-0.825,0.017,76.0,0.0,0,0.0
11:37:20.488281,1067,164490,107574,89131,169446,524031,524031,-0.123,-0.919,-0.087,76.0,0.0,0,0.0
11:37:20.495300,1068,164759,107578,89077,169619,524031,524031,-0.370,-0.970,0.021,76.0,0.0,0,0.0
11:37:20.668302,1069,165555,107600,89268,169443,524031,524031,-0.340,-1.026,-0.014,76.0,0.0,0,0.0
11:37:20.675193,1070,166351,107648,89649,168378,524031,524031,-0.212,-1.188,0.136,76.0,0.0,0,0.0
11:37:20.683194,1071,166732,107831,90106,167603,524031,524031,-0.175,-1.099,0.039,76.0,0.0,0,0.0
11:37:20.690254,1072,167088,108053,90480,168064,524031,524031,-0.238,-0.918,0.093,76.0,1243.4,25,0.0
11:37:20.697244,1073,167495,108294,90702,169102,524031,524031,-0.217,-0.798,0.001,76.0,0.0,0,0.0
11:37:20.876395,1074,167556,108423,90793,169765,524031,524031,-0.138,-0.789,-0.019,76.0,0.0,0,0.0
11:37:20.881377,1075,167451,108433,90796,169990,524031,524031,-0.253,-0.861,-0.048,76.0,0.0,0,0.0
11:37:20.887361,1076,167529,107918,90508,170077,524031,524031,-0.193,-0.997,-0.105,76.0,0.0,0,0.0
11:37:20.896944,1077,167614,107576,90527,169663,524031,524031,-0.139,-1.214,-0.044,76.0,0.0,0,0.0
11:37:20.904922,1078,167330,107525,90809,168336,524031,524031,-0.303,-1.254,0.048,76.0,0.0,0,0.0
11:37:21.070421,1079,167108,107702,91073,168530,524031,524031,-0.456,-1.003,0.018,76.0,0.0,0,0.0
11:37:21.077287,1080,167313,107978,91256,170046,524031,524031,-0.427,-0.837,0.027,76.0,0.0,0,0.0
11:37:21.084189,1081,167512,108253,91383,171325,524031,524031,-0.301,-0.800,-0.029,76.0,0.0,0,0.0
11:37:21.091736,1082,167597,108413,91391,172035,524031,524031,-0.294,-0.868,-0.104,76.0,0.0,0,0.0
11:37:21.099337,1083,167689,108391,91175,172139,524031,524031,-0.545,-0.872,-0.061,76.0,0.0,0,0.0
11:37:21.272983,1084,167764,107772,90554,171427,524031,524031,-0.700,-1.089,-0.064,76.0,0.0,0,0.0
11:37:21.280087,1085,167711,107689,90315,171137,524031,524031,-0.526,-0.995,0.009,76.0,0.0,0,0.0
11:37:21.287241,1086,167730,107720,89967,171665,524031,524031,-0.609,-0.963,0.002,76.0,0.0,0,0.0
11:37:21.294280,1087,167891,107613,89584,171772,524031,524031,-0.811,-0.962,-0.022,76.0,0.0,0,0.0
11:37:21.301783,1088,167929,107498,89481,171597,524031,524031,-0.366,-0.889,0.024,76.0,0.0,0,0.0
11:37:21.468345,1089,167603,107737,89544,171583,524031,524031,-0.522,-0.731,0.004,76.0,0.0,0,0.0
11:37:21.476318,1090,167246,107924,89448,171713,524031,524031,-0.766,-0.665,-0.012,76.0,0.0,0,0.0
11:37:21.483297,1091,167003,108478,89907,172138,524031,524031,-0.525,-0.723,-0.027,76.0,0.0,0,0.0
11:37:21.490309,1092,166708,108958,90460,172779,524031,524031,-0.453,-0.952,-0.060,76.0,0.0,0,0.0
11:37:21.497292,1093,166373,108367,89832,172846,524031,524031,-0.910,-0.724,0.159,76.0,0.0,0,0.0
11:37:21.667274,1094,165931,107763,89353,172728,524031,524031,-0.808,-1.011,0.072,76.0,0.0,0,0.0
11:37:21.675177,1095,165629,107262,88963,172619,524031,524031,-0.560,-1.053,0.129,76.0,0.0,0,0.0
11:37:21.682370,1096,165490,106875,88523,172161,524031,524031,-0.697,-0.876,0.112,76.0,0.0,0,0.0
11:37:21.689242,1097,166144,107187,88844,171390,524031,524031,-0.879,-1.011,-0.210,76.0,0.0,0,0.0
11:37:21.696270,1098,166697,107704,89808,169975,524031,524031,-0.403,-0.907,0.072,76.0,0.0,0,0.0
11:37:21.870410,1099,166954,108447,90499,170348,524031,524031,-0.202,-0.811,-0.116,76.0,0.0,0,0.0
11:37:21.877284,1100,167479,109172,90974,171499,524031,524031,-0.218,-0.816,-0.035,76.0,0.0,0,0.0
11:37:21.885198,1101,168243,109342,91073,172382,524031,524031,-0.404,-0.994,-0.067,76.0,0.0,0,0.0
11:37:21.897166,1102,169247,109194,91034,173159,524031,524031,-0.259,-1.008,0.100,76.0,0.0,0,0.0
11:37:21.904170,1103,170194,108733,91017,173004,524031,524031,-0.241,-1.157,0.251,76.0,0.0,0,0.0
11:37:22.071054,1104,171042,108603,91404,172208,524031,524031,-0.190,-1.158,-0.051,76.0,0.0,0,0.0
11:37:22.079038,1105,172428,108780,91743,173990,524031,524031,-0.223,-0.927,0.094,76.0,0.0,0,0.0
11:37:22.087016,1106,174222,109050,92005,176499,524031,524031,-0.140,-0.855,-0.028,76.0,0.0,0,0.0
11:37:22.093998,1107,175603,109340,92222,178532,524031,524031,-0.007,-0.785,-0.008,76.0,0.0,0,0.0
11:37:22.100979,1108,176304,109578,92358,179780,524031,524031,-0.030,-0.822,-0.014,76.0,0.0,0,0.0
11:37:22.267579,1109,176711,109509,92213,180368,524031,524031,-0.299,-1.050,-0.210,76.0,0.0,0,0.0
11:37:22.275340,1110,176967,108964,91835,179979,524031,524031,-0.435,-1.232,0.139,76.0,0.0,0,0.0
11:37:22.282291,1111,176683,108632,91779,178252,524031,524031,-0.245,-1.227,0.212,76.0,0.0,0,0.0
11:37:22.289275,1112,176485,108892,92032,178399,524031,524031,-0.195,-1.038,-0.085,76.0,0.0,0,0.0
11:37:22.296254,1113,176456,109121,92177,179244,524031,524031,-0.229,-0.890,0.017,76.0,0.0,0,0.0
11:37:22.468210,1114,176437,109333,92207,179742,524031,524031,-0.386,-0.821,-0.072,76.0,0.0,0,0.0
11:37:22.475168,1115,176338,108919,91853,179476,524031,524031,-0.410,-0.868,-0.029,76.0,0.0,0,0.0
11:37:22.483264,1116,176158,108305,91455,178452,524031,524031,-0.329,-1.072,-0.054,76.0,0.0,0,0.0
11:37:22.490745,1117,175764,107748,91241,176733,524031,524031,-0.483,-1.120,0.176,76.0,0.0,0,0.0
11:37:22.497227,1118,175293,107838,91229,176288,524031,524031,-0.292,-0.968,-0.006,76.0,0.0,0,0.0
11:37:22.668909,1119,175200,107632,90740,177134,524031,524031,-0.507,-1.071,-0.100,75.0,0.0,0,0.0
11:37:22.676159,1120,175342,107641,90718,176948,524031,524031,-0.499,-1.034,0.262,75.0,0.0,0,0.0
11:37:22.683141,1121,175277,107616,90678,176448,524031,524031,-0.284,-0.930,-0.110,75.0,0.0,0,0.0
11:37:22.690754,1122,174831,107823,90766,176218,524031,524031,-0.369,-0.778,0.021,75.0,0.0,0,0.0
11:37:22.698252,1123,174353,108070,90813,176338,524031,524031,-0.652,-0.623,-0.005,75.0,0.0,0,0.0
11:37:22.872507,1124,174008,108313,90997,176585,524031,524031,-0.508,-0.910,0.235,75.0,0.0,0,0.0
11:37:22.879651,1125,173646,108895,91487,177516,524031,524031,-0.060,-1.027,-0.025,75.0,0.0,0,0.0
11:37:22.886237,1126,173307,107969,90519,177549,524031,524031,-0.967,-0.854,0.147,75.0,0.0,0,0.0
11:37:22.894152,1127,173158,106876,89679,176759,524031,524031,-0.737,-1.165,0.139,75.0,0.0,0,0.0
11:37:22.901405,1128,172946,106683,89546,176428,524031,524031,-0.615,-1.088,-0.099,75.0,0.0,0,0.0
11:37:23.068241,1129,172736,106800,89560,176027,524031,524031,-0.354,-0.675,0.380,75.0,2228.6,10,0.0
11:37:23.075147,1130,172760,106760,89242,175559,524031,524031,-0.780,-1.007,-0.199,75.0,0.0,0,0.0
11:37:23.082336,1131,172933,106944,89509,174890,524031,524031,-0.262,-0.868,0.096,75.0,0.0,0,0.0
11:37:23.090006,1132,172879,107658,90070,175448,524031,524031,-0.009,-0.897,0.040,75.0,0.0,0,0.0
11:37:23.097252,1133,173038,107966,90355,175812,524031,524031,-0.231,-1.097,-0.027,75.0,0.0,0,0.0
11:37:23.271347,1134,173483,108037,90592,175381,524031,524031,-0.331,-1.092,0.025,75.0,0.0,0,0.0
11:37:23.279325,1135,173897,108217,91012,174805,524031,524031,-0.111,-1.091,0.143,75.0,0.0,0,0.0
11:37:23.287094,1136,174295,108488,91333,175064,524031,524031,-0.093,-1.090,0.151,75.0,0.0,0,0.0
11:37:23.294293,1137,174876,108537,91349,175498,524031,524031,-0.167,-1.015,-0.086,75.0,0.0,0,0.0
11:37:23.302195,1138,175280,108625,91298,176076,524031,524031,-0.217,-0.859,-0.048,75.0,0.0,0,0.0
11:37:23.469396,1139,175464,108862,91291,176433,524031,524031,-0.134,-0.796,0.031,75.0,0.0,0,0.0
11:37:23.475982,1140,175402,109045,91263,176250,524031,524031,-0.016,-0.828,0.115,75.0,0.0,0,0.0
11:37:23.482963,1141,175332,109062,91147,175973,524031,524031,0.056,-0.861,0.019,75.0,0.0,0,0.0
11:37:23.490942,1142,175106,108577,90785,175262,524031,524031,0.127,-1.113,0.042,75.0,0.0,0,0.0
11:37:23.499917,1143,174557,108003,90382,173741,524031,524031,-0.166,-1.294,-0.022,75.0,0.0,0,0.0
11:37:23.671106,1144,173780,107762,90117,172060,524031,524031,-0.966,-1.071,-0.135,75.0,0.0,0,0.0
11:37:23.678085,1145,173463,107894,90251,172143,524031,524031,-0.183,-0.978,0.007,75.0,702.6,25,0.0
11:37:23.685065,1146,173202,108223,90406,172536,524031,524031,-0.235,-0.882,-0.044,75.0,0.0,0,0.0
11:37:23.693078,1147,172975,108482,90397,173078,524031,524031,-0.219,-0.808,-0.059,75.0,0.0,0,0.0
11:37:23.700025,1148,172868,108375,90068,173273,524031,524031,-0.434,-0.970,-0.073,75.0,0.0,0,0.0
11:37:23.871680,1149,172927,108161,89782,172933,524031,524031,-0.372,-0.993,-0.129,74.0,0.0,0,0.0
11:37:23.879202,1150,172937,107880,89462,172057,524031,524031,-0.802,-1.144,-0.033,74.0,290.0,25,0.0
11:37:23.886189,1151,172732,107893,89507,171722,524031,524031,-0.403,-0.947,-0.059,74.0,0.0,0,0.0
11:37:23.893820,1152,172597,108074,89361,172651,524031,524031,-0.695,-0.876,-0.072,74.0,0.0,0,0.0
11:37:23.900232,1153,172827,107926,89156,172776,524031,524031,-0.663,-1.046,-0.026,74.0,0.0,0,0.0
11:37:24.071036,1154,173009,107544,88823,172372,524031,524031,-0.308,-0.904,-0.081,74.0,0.0,0,0.0
11:37:24.079017,1155,172822,107385,88718,171966,524031,524031,-0.340,-0.893,-0.115,74.0,0.0,0,0.0
11:37:24.085999,1156,172587,107595,88777,171945,524031,524031,-0.684,-0.750,-0.124,74.0,0.0,0,0.0
11:37:24.093977,1157,172536,108067,89081,172147,524031,524031,-0.712,-0.645,0.000,74.0,0.0,0,0.0
11:37:24.100958,1158,172454,108598,89560,172695,524031,524031,-0.318,-0.881,-0.091,74.0,0.0,0,0.0
11:37:24.269970,1159,172273,108556,89603,172922,524031,524031,-0.481,-0.985,-0.058,74.0,0.0,0,0.0
11:37:24.276369,1160,171965,108300,89362,172730,524031,524031,-0.911,-0.779,-0.050,74.0,0.0,0,0.0
11:37:24.284162,1161,171552,108226,89431,173034,524031,524031,-0.776,-0.906,0.002,74.0,0.0,0,0.0
11:37:24.291523,1162,171058,107802,89215,173027,524031,524031,-0.581,-1.106,0.038,74.0,0.0,0,0.0
11:37:24.298862,1163,170729,107570,89046,172648,524031,524031,-0.600,-0.893,-0.096,74.0,0.0,0,0.0
11:37:24.469870,1164,170607,107287,88754,172116,524031,524031,-0.762,-0.959,-0.114,74.0,0.0,0,0.0
11:37:24.476611,1165,170604,107018,88662,171426,524031,524031,-0.448,-0.798,-0.093,74.0,0.0,0,0.0
11:37:24.484328,1166,170333,107232,88780,171574,524031,524031,-0.263,-0.828,0.006,74.0,0.0,0,0.0
11:37:24.490718,1167,170446,107510,89051,171781,524031,524031,-0.310,-1.085,-0.128,74.0,0.0,0,0.0
11:37:24.497699,1168,170750,107430,89193,171558,524031,524031,-0.386,-0.994,-0.092,74.0,0.0,0,0.0
11:37:24.671818,1169,171024,107382,89339,171312,524031,524031,-0.261,-0.991,0.115,74.0,0.0,0,0.0
11:37:24.678655,1170,171319,107368,89496,170657,524031,524031,-0.163,-1.203,0.062,74.0,0.0,0,0.0
11:37:24.686190,1171,171513,107383,89635,170344,524031,524031,-0.173,-1.050,0.091,74.0,754.6,25,0.0
11:37:24.693764,1172,171953,107606,89849,171054,524031,524031,-0.125,-0.922,0.051,74.0,0.0,0,0.0
11:37:24.700746,1173,172532,107929,90041,171801,524031,524031,-0.095,-0.786,-0.019,74.0,0.0,0,0.0
11:37:24.874600,1174,172971,108303,90177,172254,524031,524031,-0.138,-0.768,-0.038,74.0,0.0,0,0.0
11:37:24.881577,1175,173199,108631,90242,172436,524031,524031,-0.215,-0.875,-0.025,74.0,0.0,0,0.0
11:37:24.889146,1176,173434,108350,89880,172377,524031,524031,-0.032,-1.168,-0.040,74.0,0.0,0,0.0
11:37:24.900118,1177,173214,107400,88971,171251,524031,524031,-0.271,-1.170,0.104,74.0,0.0,0,0.0
11:37:24.907495,1178,172571,106947,88560,169737,524031,524031,-0.353,-1.205,0.009,74.0,0.0,0,0.0
11:37:25.069847,1179,172117,107256,88826,169732,524031,524031,-0.386,-0.924,-0.048,74.0,0.0,0,0.0
11:37:25.077107,1180,171940,107607,89127,170023,524031,524031,-0.345,-0.808,-0.030,74.0,0.0,0,0.0
11:37:25.084257,1181,171792,107743,89287,170364,524031,524031,-0.235,-0.872,-0.085,74.0,0.0,0,0.0
11:37:25.091067,1182,171643,107836,89298,170516,524031,524031,-0.290,-0.880,-0.029,74.0,0.0,0,0.0
11:37:25.098207,1183,171594,107921,89204,170486,524031,524031,-0.470,-0.897,-0.116,74.0,0.0,0,0.0
11:37:25.269343,1184,171589,107605,88807,170186,524031,524031,-0.731,-1.123,0.010,74.0,0.0,0,0.0
11:37:25.276325,1185,171540,107592,88617,170247,524031,524031,-0.604,-1.017,-0.079,74.0,0.0,0,0.0
11:37:25.283305,1186,171475,107742,88535,170953,524031,524031,-0.545,-1.009,-0.053,74.0,0.0,0,0.0
11:37:25.291284,1187,171395,107597,88201,171144,524031,524031,-0.874,-0.885,0.020,74.0,0.0,0,0.0
11:37:25.298265,1188,171364,107218,87940,170982,524031,524031,-0.439,-0.941,-0.009,74.0,0.0,0,0.0
11:37:25.470305,1189,171147,107258,88078,170999,524031,524031,-0.467,-0.744,-0.114,75.0,0.0,0,0.0
11:37:25.477106,1190,170791,107462,88163,171023,524031,524031,-0.630,-0.647,-0.024,75.0,0.0,0,0.0
11:37:25.484108,1191,170468,107705,88350,171188,524031,524031,-0.526,-0.739,0.001,75.0,0.0,0,0.0
11:37:25.491959,1192,170109,108188,88754,171532,524031,524031,-0.547,-0.866,-0.065,75.0,0.0,0,0.0
11:37:25.498943,1193,169813,108106,88567,171483,524031,524031,-0.864,-0.764,0.093,75.0,0.0,0,0.0
11:37:25.672137,1194,169461,108163,88659,171494,524031,524031,-0.764,-0.927,0.108,75.0,0.0,0,0.0
11:37:25.680234,1195,169086,107751,88311,171480,524031,524031,-0.821,-1.068,-0.012,75.0,0.0,0,0.0
11:37:25.688104,1196,168874,107057,87847,171183,524031,524031,-0.704,-1.000,0.012,75.0,936.9,25,0.0
11:37:25.695098,1197,168769,106918,87802,170978,524031,524031,-0.646,-0.766,-0.132,75.0,0.0,0,0.0
11:37:25.702303,1198,168874,106958,87780,170687,524031,524031,-0.647,-0.835,-0.151,75.0,0.0,0,0.0
11:37:25.870754,1199,169025,107188,87753,170762,524031,524031,-0.341,-0.904,0.083,75.0,0.0,0,0.0
11:37:25.877148,1200,169180,107209,87623,170804,524031,524031,-0.404,-0.904,-0.017,75.0,0.0,0,0.0
11:37:25.885140,1201,169672,106898,87401,170435,524031,524031,-0.352,-1.124,-0.016,75.0,0.0,0,0.0
11:37:25.891794,1202,170258,106768,87600,169490,524031,524031,-0.384,-1.071,-0.017,75.0,0.0,0,0.0
11:37:25.899694,1203,170361,106984,88067,168775,524031,524031,-0.175,-1.061,0.102,75.0,0.0,0,0.0
11:37:26.070739,1204,170497,107346,88520,168632,524031,524031,-0.242,-1.001,-0.021,75.0,0.0,0,0.0
11:37:26.077721,1205,170685,107635,88853,168707,524031,524031,-0.164,-0.882,-0.120,75.0,0.0,0,0.0
11:37:26.085045,1206,170890,107965,89089,169054,524031,524031,-0.141,-0.788,0.016,75.0,0.0,0,0.0
11:37:26.093024,1207,171114,108140,89146,169262,524031,524031,-0.125,-0.857,0.024,75.0,0.0,0,0.0
11:37:26.100009,1208,171255,108198,89144,169188,524031,524031,-0.164,-0.892,0.019,75.0,0.0,0,0.0
11:37:26.270942,1209,171220,107784,88829,168805,524031,524031,-0.187,-1.098,-0.112,75.0,0.0,0,0.0
11:37:26.278184,1210,170875,107127,88457,167728,524031,524031,-0.318,-1.195,0.025,75.0,0.0,0,0.0
11:37:26.285095,1211,170338,107043,88541,166812,524031,524031,-0.326,-1.155,0.000,75.0,0.0,0,0.0
11:37:26.291826,1212,170154,107309,88828,166964,524031,524031,-0.445,-0.872,-0.077,75.0,0.0,0,0.0
11:37:26.299891,1213,170020,107590,89126,167154,524031,524031,-0.325,-0.913,0.037,75.0,0.0,0,0.0
11:37:26.474394,1214,169871,107870,89303,167351,524031,524031,-0.260,-0.870,-0.083,75.0,0.0,0,0.0
11:37:26.484606,1215,169593,107975,89204,167493,524031,524031,-0.454,-0.923,-0.104,75.0,0.0,0,0.0
11:37:26.492527,1216,169396,107741,88854,167321,524031,524031,-0.682,-1.048,-0.022,75.0,0.0,0,0.0
11:37:26.499876,1217,169346,107651,88569,167072,524031,524031,-0.614,-1.029,-0.121,75.0,0.0,0,0.0
11:37:26.506579,1218,169299,107948,88781,167865,524031,524031,-0.186,-1.056,-0.103,75.0,0.0,0,0.0
11:37:26.670248,1219,169185,107591,88075,167890,524031,524031,-0.975,-1.004,-0.029,75.0,0.0,0,0.0
11:37:26.678228,1220,169178,107202,87610,167280,524031,524031,-0.614,-0.894,0.113,75.0,0.0,0,0.0
11:37:26.686205,1221,168955,107355,87816,167345,524031,524031,-0.254,-0.783,0.130,75.0,0.0,0,0.0
11:37:26.694204,1222,168696,107401,87723,167439,524031,524031,-0.775,-0.752,-0.152,75.0,0.0,0,0.0
11:37:26.702162,1223,168595,107649,87882,167500,524031,524031,-0.524,-0.654,-0.254,75.0,1190.4,25,0.0
11:37:26.870725,1224,168247,108342,88514,168063,524031,524031,-0.293,-0.799,0.175,76.0,0.0,0,0.0
11:37:26.878073,1225,168124,108234,88370,168225,524031,524031,-0.699,-0.958,-0.191,76.0,0.0,0,0.0
11:37:26.885000,1226,167900,107835,87954,167773,524031,524031,-0.846,-0.879,0.014,76.0,0.0,0,0.0
11:37:26.891980,1227,167569,107975,88323,167980,524031,524031,-0.645,-0.855,0.103,76.0,0.0,0,0.0
11:37:26.899874,1228,167313,107577,87952,167759,524031,524031,-0.745,-1.066,-0.113,76.0,0.0,0,0.0
11:37:27.071276,1229,167014,107069,87625,167168,524031,524031,-0.591,-1.017,-0.038,76.0,0.0,0,0.0
11:37:27.078770,1230,166772,107021,87616,166727,524031,524031,-0.614,-0.754,0.017,76.0,0.0,0,0.0
11:37:27.085107,1231,166754,107269,87584,166928,524031,524031,-0.629,-0.869,-0.043,76.0,0.0,0,0.0
11:37:27.093423,1232,166926,107196,87430,167366,524031,524031,-0.259,-0.945,-0.186,76.0,0.0,0,0.0
11:37:27.100616,1233,167291,107319,87516,167570,524031,524031,-0.160,-0.963,0.024,76.0,0.0,0,0.0
11:37:27.272470,1234,167894,107399,87680,167431,524031,524031,-0.300,-1.011,-0.217,76.0,0.0,0,0.0
11:37:27.280177,1235,168515,107341,87865,167022,524031,524031,-0.351,-1.012,0.045,76.0,0.0,0,0.0
11:37:27.287072,1236,169061,107364,88147,166526,524031,524031,-0.133,-1.126,0.109,76.0,0.0,0,0.0
11:37:27.294123,1237,169348,107388,88374,166181,524031,524031,-0.211,-1.014,0.055,76.0,0.0,0,0.0
11:37:27.302011,1238,169492,107531,88589,166543,524031,524031,-0.145,-0.848,0.042,76.0,0.0,0,0.0
11:37:27.472214,1239,169569,107830,88836,167145,524031,524031,-0.093,-0.774,-0.090,76.0,0.0,0,0.0
