timestmp,smpleCnt,grnCnt,led2,led3,grn2Cnt,irCnt,redCnt,accelX,accelY,accelZ,hr,rr,rrsecure,spo2
11:11:53.647776,0,140250,35670,30753,139449,106594,106633,-0.704,-0.703,0.052,60.0,0.0,0,0.0
11:11:53.654730,1,271447,35694,30768,267347,237303,237331,-0.727,-0.740,0.112,60.0,0.0,0,0.0
11:11:53.661501,2,269589,35681,30784,255805,368487,368526,-0.748,-0.777,0.075,60.0,0.0,0,0.0
11:11:53.668971,3,216645,35653,30773,209232,493667,493737,-0.721,-0.767,0.211,60.0,0.0,0,0.0
11:11:53.675481,4,190046,35613,30730,179285,524159,524159,-0.737,-0.768,0.136,60.0,0.0,0,0.0
11:11:53.683022,5,177923,35567,30694,169816,524159,524159,-0.706,-0.759,0.091,60.0,0.0,0,0.0
11:11:53.689454,6,174044,35508,30668,166016,524159,524159,-0.753,-0.719,0.088,60.0,0.0,0,0.0
11:11:53.696719,7,174011,35480,30632,165866,524159,524159,-0.740,-0.712,0.057,60.0,0.0,0,0.0
11:11:53.843620,8,174040,35451,30605,165777,524159,524159,-0.684,-0.739,0.170,60.0,0.0,0,0.0
11:11:53.850747,9,174096,35434,30589,165698,524159,524159,-0.763,-0.752,0.149,60.0,0.0,0,0.0
11:11:53.857866,10,174142,35422,30560,165623,524159,524159,-0.735,-0.758,0.139,60.0,0.0,0,0.0
11:11:53.864853,11,174121,35392,30560,165508,524159,524159,-0.576,-0.853,0.216,60.0,0.0,0,0.0
11:11:53.871805,12,174076,67444,59541,165337,524159,524159,-0.664,-0.770,0.113,60.0,0.0,0,0.0
11:11:54.043558,13,173990,70793,60340,165093,524159,524159,-0.738,-0.721,0.155,60.0,0.0,0,0.0
11:11:54.050573,14,173972,70885,60433,164935,524159,524159,-0.686,-0.790,0.195,60.0,0.0,0,0.0
11:11:54.057405,15,174347,71046,60493,165304,524159,524159,-0.556,-0.893,0.005,60.0,0.0,0,0.0
11:11:54.064362,16,174881,71263,60635,165798,524159,524159,-0.667,-0.763,-0.046,60.0,0.0,0,0.0
11:11:54.071229,17,175457,71591,60939,166131,524159,524159,-0.699,-0.750,0.074,60.0,0.0,0,0.0
11:11:54.244696,18,175969,71729,61077,166598,524159,524159,-0.602,-0.732,0.107,60.0,0.0,0,0.0
11:11:54.252917,19,176390,71840,61172,166965,524159,524159,-0.584,-0.740,0.014,60.0,0.0,0,0.0
11:11:54.262949,20,176706,72025,61342,167160,524159,524159,-0.677,-0.732,0.000,60.0,0.0,0,0.0
11:11:54.269846,21,176776,72219,61570,167076,524159,524159,-0.802,-0.820,0.052,60.0,0.0,0,0.0
11:11:54.276689,22,176731,72329,61759,166871,524159,524159,-0.739,-0.902,0.089,60.0,0.0,0,0.0
11:11:54.443807,23,176589,72322,61796,166655,524159,524159,-0.784,-0.814,0.062,60.0,0.0,0,0.0
11:11:54.451790,24,176418,124514,113615,166656,524159,524159,-0.740,-0.858,-0.062,60.0,0.0,0,0.0
11:11:54.458766,25,176115,141586,120894,166568,524159,524159,-0.639,-0.887,-0.028,60.0,0.0,0,0.0
11:11:54.466745,26,175456,141037,120461,166153,524159,524159,-0.690,-0.781,0.000,60.0,0.0,0,0.0
11:11:54.473726,27,174692,140581,120247,165690,524159,524159,-0.631,-0.778,0.025,60.0,0.0,0,0.0
11:11:54.645337,28,174273,140393,120215,165452,524159,524159,-0.613,-0.700,0.093,60.0,0.0,0,0.0
11:11:54.652688,29,174335,140473,120297,165615,524159,524159,-0.529,-0.755,-0.012,60.0,0.0,0,0.0
11:11:54.659691,30,174467,140517,120494,165701,524159,524159,-0.500,-0.807,-0.015,60.0,0.0,0,0.0
11:11:54.666717,31,174104,140696,120979,165468,524159,524159,-0.606,-0.775,-0.024,60.0,0.0,0,0.0
11:11:54.673781,32,173348,140702,121365,165179,524159,524159,-0.640,-0.904,-0.070,60.0,0.0,0,0.0
11:11:54.844124,33,172794,140620,121587,165141,524159,524159,-0.657,-0.970,0.037,60.0,0.0,0,0.0
11:11:54.851376,34,172675,140629,121763,165396,524159,524159,-0.718,-0.874,0.023,60.0,0.0,0,0.0
11:11:54.857676,35,172942,140597,121738,165960,524159,524159,-0.633,-0.883,0.098,60.0,0.0,0,0.0
11:11:54.865655,36,173286,144174,124941,166261,524159,524159,-0.638,-0.855,0.173,60.0,0.0,0,0.0
11:11:54.872562,37,173800,144101,125109,166482,524159,524159,-0.591,-0.781,0.057,60.0,0.0,0,0.0
11:11:55.043390,38,174507,144385,125675,166844,524159,524159,-0.516,-0.743,0.106,60.0,0.0,0,0.0
11:11:55.050370,39,175250,144857,126170,167537,524159,524159,-0.641,-0.568,0.161,60.0,0.0,0,0.0
11:11:55.057351,40,175769,145058,126152,168114,524159,524159,-0.779,-0.504,0.245,60.0,0.0,0,0.0
11:11:55.064332,41,175839,144499,124996,168273,524159,524159,-0.693,-0.712,0.089,60.0,0.0,0,0.0
11:11:55.072657,42,175538,143682,123556,167985,524159,524159,-0.650,-0.866,0.210,60.0,0.0,0,0.0
11:11:55.244112,43,175024,143183,122465,167383,524159,524159,-1.112,-0.732,0.200,60.0,0.0,0,0.0
11:11:55.251094,44,174793,142710,121724,167135,524159,524159,-0.746,-0.733,0.249,60.0,0.0,0,0.0
11:11:55.259072,45,174747,142365,121336,167014,524159,524159,-0.590,-0.760,0.199,60.0,0.0,0,0.0
11:11:55.266052,46,174385,142322,121397,166265,524159,524159,-0.701,-0.791,0.036,60.0,0.0,0,0.0
11:11:55.273033,47,173974,143120,122368,165551,524159,524159,-0.819,-0.676,0.214,60.0,0.0,0,0.0
11:11:55.445306,48,173910,144062,123364,165443,524159,524159,-0.730,-0.720,0.226,60.0,0.0,0,0.0
11:11:55.451945,49,174034,144442,123745,165671,524159,524159,-0.535,-0.778,0.246,60.0,0.0,0,0.0
11:11:55.458796,50,174173,144725,124048,165896,524159,524159,-0.568,-0.781,0.014,60.0,0.0,0,0.0
11:11:55.465655,51,173906,145010,124388,165776,524159,524159,-0.632,-0.978,-0.029,60.0,0.0,0,0.0
11:11:55.473564,52,173305,145188,124878,165452,524159,524159,-0.797,-0.828,0.100,60.0,0.0,0,0.0
11:11:55.645047,53,172933,145424,125720,165477,524159,524159,-0.586,-0.913,0.302,60.0,0.0,0,0.0
11:11:55.652097,54,173068,145016,125949,165771,524159,524159,-0.258,-1.037,0.266,60.0,0.0,0,0.0
11:11:55.659289,55,173551,145024,126387,166113,524159,524159,-0.666,-0.985,-0.294,60.0,0.0,0,0.0
11:11:55.665689,56,173892,145260,127274,166481,524159,524159,-0.704,-0.746,0.071,60.0,0.0,0,0.0
11:11:55.673643,57,174420,145518,127504,167289,524159,524159,-0.288,-0.688,0.122,60.0,0.0,0,0.0
11:11:55.844962,58,174883,145821,127491,167948,524159,524159,-0.345,-0.770,0.185,60.0,0.0,0,0.0
11:11:55.851917,59,174909,145914,127517,168239,524159,524159,-0.504,-0.948,-0.124,60.0,0.0,0,0.0
11:11:55.858631,60,174711,145750,127588,168504,524159,524159,-0.340,-1.022,-0.074,60.0,0.0,0,0.0
11:11:55.866633,61,174402,145752,128166,168296,524159,524159,-0.514,-1.089,0.036,60.0,0.0,0,0.0
11:11:55.873625,62,174534,145733,129307,167474,524159,524159,-0.585,-1.119,0.025,60.0,0.0,0,0.0
11:11:56.045627,63,175066,145867,129859,167649,524159,524159,-0.497,-0.997,-0.006,60.0,0.0,0,0.0
11:11:56.052978,64,175662,146019,129938,168509,524159,524159,-0.400,-0.990,-0.122,60.0,0.0,0,0.0
11:11:56.060227,65,176152,146162,129940,169211,524159,524159,-0.356,-0.839,0.023,60.0,0.0,0,0.0
11:11:56.066617,66,176613,146284,129793,169890,524159,524159,-0.309,-0.739,0.218,60.0,0.0,0,0.0
11:11:56.075594,67,177234,146396,129615,170677,524159,524159,-0.324,-0.817,-0.015,60.0,0.0,0,0.0
11:11:56.245664,68,177833,146236,129527,171327,524159,524159,-0.270,-0.928,-0.086,60.0,0.0,0,0.0
11:11:56.253514,69,178071,145761,129400,171454,524159,524159,-0.451,-0.937,0.036,60.0,0.0,0,0.0
11:11:56.260663,70,178195,145216,129411,171065,524159,524159,-0.512,-1.025,-0.072,60.0,0.0,0,0.0
11:11:56.267735,71,178462,144926,129660,170647,524159,524159,-0.462,-1.094,-0.061,60.0,0.0,0,0.0
11:11:56.274619,72,178820,144720,130071,169984,524159,524159,-0.447,-1.153,0.168,60.0,0.0,0,0.0
11:11:56.445004,73,179444,145138,130541,169716,524159,524159,-0.683,-0.864,0.181,60.0,0.0,0,0.0
11:11:56.452981,74,180459,146105,131260,170613,524159,524159,-0.446,-0.616,-0.149,60.0,0.0,0,0.0
11:11:56.460110,75,181373,147744,132443,172409,524159,524159,-0.283,-0.628,0.032,60.0,0.0,0,0.0
11:11:56.466641,76,181873,148641,132962,173823,524159,524159,-0.566,-0.778,0.042,60.0,0.0,0,0.0
11:11:56.473644,77,182301,148752,132670,175255,524159,524159,-0.634,-0.780,0.193,60.0,0.0,0,0.0
11:11:56.644330,78,181964,147521,131432,175485,524159,524159,-0.905,-0.812,0.236,60.0,0.0,0,0.0
11:11:56.651336,79,181552,145907,130445,174587,524159,524159,-0.826,-0.988,0.420,60.0,0.0,0,0.0
11:11:56.659289,80,181946,145490,129122,175317,524159,524159,-0.560,-0.942,0.240,60.0,0.0,0,0.0
11:11:56.666272,81,182511,144570,126973,175810,524159,524159,-0.995,-0.539,-0.016,60.0,0.0,0,0.0
11:11:56.674248,82,182494,144240,126225,175421,524159,524159,-0.704,-0.699,0.252,60.0,0.0,0,0.0
11:11:56.845725,83,182536,144160,126523,174703,524159,524159,-0.507,-0.823,0.163,60.0,554.8,25,0.0
11:11:56.852705,84,182731,144636,127172,174411,524159,524159,-0.672,-0.739,0.297,60.0,0.0,0,0.0
11:11:56.859686,85,183032,145175,127728,174475,524159,524159,-0.563,-0.633,0.330,60.0,0.0,0,0.0
11:11:56.867697,86,183679,145423,127939,174944,524159,524159,-0.502,-0.985,-0.177,60.0,0.0,0,0.0
11:11:56.874645,87,183582,145446,128104,174639,524159,524159,-0.769,-0.768,0.254,60.0,0.0,0,0.0
11:11:57.045247,88,182751,145522,128109,174043,524159,524159,-0.578,-0.694,0.330,60.0,0.0,0,0.0
11:11:57.052228,89,182490,145651,128695,173903,524159,524159,-0.555,-0.998,0.119,59.0,0.0,0,0.0
11:11:57.059597,90,182762,145557,129047,173878,524159,524159,-0.509,-1.010,0.075,59.0,0.0,0,0.0
11:11:57.066622,91,183109,145704,129182,174297,524159,524159,-0.641,-0.855,-0.049,59.0,0.0,0,0.0
11:11:57.073574,92,183337,145866,129218,174819,524159,524159,-0.513,-0.679,0.187,59.0,0.0,0,0.0
11:11:57.245329,93,183658,146200,129232,175589,524159,524159,-0.429,-0.771,0.056,59.0,0.0,0,0.0
11:11:57.252427,94,184108,146356,129143,176281,524159,524159,-0.353,-0.902,-0.013,59.0,0.0,0,0.0
11:11:57.259531,95,184292,146223,129089,176603,524159,524159,-0.444,-0.957,-0.024,59.0,0.0,0,0.0
11:11:57.266512,96,183964,145998,129205,176268,524159,524159,-0.638,-1.048,-0.005,59.0,0.0,0,0.0
11:11:57.274225,97,183838,145729,129461,175906,524159,524159,-0.447,-1.189,-0.072,59.0,0.0,0,0.0
11:11:57.446740,98,184125,145772,129756,175927,524159,524159,-0.400,-1.108,-0.007,59.0,0.0,0,0.0
11:11:57.453722,99,184671,146123,129940,176470,524159,524159,-0.449,-0.945,-0.048,59.0,0.0,0,0.0
11:11:57.461547,100,185242,146377,129905,177203,524159,524159,-0.457,-0.685,0.192,59.0,0.0,0,0.0
11:11:57.467851,101,185879,146540,129592,178110,524159,524159,-0.365,-0.710,0.061,59.0,0.0,0,0.0
11:11:57.476679,102,186859,146743,129471,179252,524159,524159,-0.145,-0.902,-0.072,59.0,784.9,25,0.0
11:11:57.645609,103,187789,146582,129308,180121,524159,524159,-0.307,-0.812,-0.042,59.0,0.0,0,0.0
11:11:57.652808,104,187669,145780,128890,179871,524159,524159,-0.604,-0.975,-0.063,59.0,0.0,0,0.0
11:11:57.660209,105,187220,145469,129052,179507,524159,524159,-0.446,-0.988,0.005,59.0,0.0,0,0.0
11:11:57.666554,106,187238,145456,129583,178910,524159,524159,-0.564,-0.958,0.084,59.0,0.0,0,0.0
11:11:57.674551,107,187684,145632,130028,178480,524159,524159,-0.713,-0.933,-0.098,59.0,0.0,0,0.0
11:11:57.848473,108,188561,146171,130724,178995,524159,524159,-0.470,-0.913,-0.099,59.0,0.0,0,0.0
11:11:57.855594,109,189358,147118,131662,180198,524159,524159,-0.419,-0.848,-0.060,59.0,0.0,0,0.0
11:11:57.863435,110,190038,148109,132367,181343,524159,524159,-0.870,-0.605,0.004,59.0,0.0,0,0.0
11:11:57.870593,111,190756,148673,132895,182109,524159,524159,-0.866,-0.679,0.026,59.0,0.0,0,0.0
11:11:57.878037,112,191351,148756,133192,182811,524159,524159,-0.857,-0.871,0.026,59.0,0.0,0,0.0
11:11:58.045343,113,191753,148806,133219,183438,524159,524159,-0.781,-0.802,-0.015,59.0,0.0,0,0.0
11:11:58.052067,114,191833,148538,132559,183775,524159,524159,-0.791,-0.723,0.126,59.0,0.0,0,0.0
11:11:58.059048,115,191728,147804,131498,183751,524159,524159,-0.888,-0.709,0.063,59.0,0.0,0,0.0
11:11:58.066029,116,191860,147163,130786,183850,524159,524159,-0.691,-0.763,0.008,59.0,0.0,0,0.0
11:11:58.073011,117,191954,146945,130367,183963,524159,524159,-0.716,-0.664,0.000,59.0,0.0,0,0.0
11:11:58.245077,118,191704,146610,130066,183591,524159,524159,-0.827,-0.721,0.004,59.0,0.0,0,0.0
11:11:58.252935,119,191412,146448,129956,183350,524159,524159,-0.673,-0.674,0.205,59.0,0.0,0,0.0
11:11:58.260131,120,191723,146374,129873,183857,524159,524159,-0.398,-0.905,-0.017,59.0,0.0,0,0.0
11:11:58.266573,121,192018,146320,129839,184138,524159,524159,-0.855,-0.702,-0.070,59.0,0.0,0,0.0
11:11:58.274385,122,191854,146242,129953,184121,524159,524159,-0.594,-0.867,0.180,59.0,0.0,0,0.0
11:11:58.445523,123,191925,146000,130032,184336,524159,524159,-0.617,-1.062,-0.041,59.0,0.0,0,0.0
11:11:58.452506,124,192184,145520,130120,184391,524159,524159,-0.343,-1.126,0.200,59.0,0.0,0,0.0
11:11:58.461416,125,192513,145600,130170,184466,524159,524159,-0.661,-0.863,-0.011,59.0,1023.0,25,0.0
11:11:58.467668,126,193225,145889,130215,184939,524159,524159,-0.562,-0.642,0.057,59.0,0.0,0,0.0
11:11:58.475231,127,194068,146274,130256,185657,524159,524159,-0.321,-0.707,0.201,59.0,0.0,0,0.0
11:11:58.646552,128,194612,146582,130275,186231,524159,524159,-0.292,-0.911,-0.067,59.0,0.0,0,0.0
11:11:58.654063,129,194469,146353,130208,186186,524159,524159,-0.317,-1.128,-0.119,59.0,0.0,0,0.0
11:11:58.661116,130,193802,145539,130025,185170,524159,524159,-0.564,-1.037,0.174,59.0,0.0,0,0.0
11:11:58.667554,131,193723,145188,130348,184018,524159,524159,-0.462,-1.124,0.042,59.0,0.0,0,0.0
11:11:58.675567,132,194156,145416,130715,184299,524159,524159,-0.345,-1.036,-0.142,59.0,0.0,0,0.0
11:11:58.849682,133,194576,145919,130916,184981,524159,524159,-0.368,-0.810,0.190,59.0,0.0,0,0.0
11:11:58.856054,134,195113,146292,130966,185688,524159,524159,-0.356,-0.761,0.047,59.0,0.0,0,0.0
11:11:58.864258,135,195956,146608,131015,186669,524159,524159,-0.199,-0.821,-0.012,59.0,0.0,0,0.0
11:11:58.871146,136,196828,146621,130977,187606,524159,524159,-0.084,-0.926,0.042,59.0,0.0,0,0.0
11:11:58.878589,137,196836,145939,130673,187435,524159,524159,-0.494,-0.931,-0.010,59.0,0.0,0,0.0
11:11:59.044750,138,196453,145339,130554,186539,524159,524159,-0.618,-1.000,-0.107,59.0,0.0,0,0.0
11:11:59.052696,139,196672,145496,131017,186376,524159,524159,-0.525,-0.978,0.013,59.0,0.0,0,0.0
11:11:59.059744,140,196811,145833,131392,186451,524159,524159,-0.576,-0.892,0.136,59.0,0.0,0,0.0
11:11:59.066539,141,197647,146645,132230,187422,524159,524159,-0.403,-0.869,-0.258,59.0,467.2,25,0.0
11:11:59.073688,142,198654,147529,132410,189031,524159,524159,-0.548,-0.651,0.092,59.0,0.0,0,0.0
11:11:59.245879,143,199398,147602,131356,190307,524159,524159,-0.903,-0.619,0.080,59.0,0.0,0,0.0
11:11:59.252860,144,200247,146797,129575,191730,524159,524159,-0.684,-1.202,-0.116,59.0,0.0,0,0.0
11:11:59.259840,145,200560,145031,126771,192190,524159,524159,-0.969,-0.824,0.108,59.0,0.0,0,0.0
11:11:59.266822,146,201121,144520,125425,192919,524159,524159,-0.662,-0.851,0.173,59.0,0.0,0,0.0
11:11:59.274476,147,202140,144175,124815,193994,524159,524159,-0.833,-0.709,-0.140,59.0,0.0,0,0.0
11:11:59.452891,148,202844,144310,125066,194417,524159,524159,-0.677,-0.625,-0.175,59.0,0.0,0,0.0
11:11:59.456875,149,202850,144939,126121,193831,524159,524159,-0.798,-0.674,-0.224,59.0,0.0,0,0.0
11:11:59.464230,150,201674,145215,126990,191902,524159,524159,-0.791,-0.836,-0.070,59.0,0.0,0,0.0
11:11:59.471211,151,201142,144912,126918,191109,524159,524159,-0.433,-0.860,0.188,59.0,0.0,0,0.0
11:11:59.478192,152,200818,144638,126594,190467,524159,524159,-0.764,-0.708,0.061,59.0,0.0,0,0.0
11:11:59.646056,153,200515,144519,126805,189691,524159,524159,-0.828,-0.841,0.122,59.0,0.0,0,0.0
11:11:59.653035,154,200592,144549,127122,189624,524159,524159,-0.605,-0.782,-0.234,59.0,0.0,0,0.0
11:11:59.661468,155,200459,144589,127334,189783,524159,524159,-0.487,-0.884,-0.005,59.0,0.0,0,0.0
11:11:59.668618,156,199728,144497,127259,189097,524159,524159,-0.840,-0.895,-0.034,59.0,0.0,0,0.0
11:11:59.675516,157,199968,144342,127278,189142,524159,524159,-0.522,-0.920,-0.144,59.0,0.0,0,0.0
11:11:59.845575,158,200573,144475,127132,189706,524159,524159,-0.555,-0.741,-0.064,59.0,0.0,0,0.0
11:11:59.852557,159,201127,144637,127037,190477,524159,524159,-0.469,-0.753,0.046,59.0,0.0,0,0.0
11:11:59.861257,160,201632,144814,126825,191405,524159,524159,-0.560,-0.713,0.095,59.0,920.1,25,0.0
11:11:59.868507,161,201476,144576,126446,191637,524159,524159,-0.631,-0.936,-0.279,59.0,0.0,0,0.0
11:11:59.875507,162,201176,144395,126331,191611,524159,524159,-0.610,-0.971,-0.121,59.0,0.0,0,0.0
11:12:00.045499,163,200413,144286,126271,190782,524159,524159,-0.752,-1.045,-0.110,59.0,0.0,0,0.0
11:12:00.053295,164,200304,143866,126203,190233,524159,524159,-0.565,-1.126,-0.175,60.0,0.0,0,0.0
11:12:00.060545,165,200465,143447,125962,189776,524159,524159,-0.548,-1.027,0.033,60.0,0.0,0,0.0
11:12:00.067599,166,200734,143303,125791,189662,524159,524159,-0.532,-0.913,-0.045,60.0,0.0,0,0.0
11:12:00.075006,167,200955,143575,125878,189806,524159,524159,-0.508,-0.691,0.059,60.0,0.0,0,0.0
11:12:00.246489,168,201620,144434,126498,190608,524159,524159,-0.255,-0.728,0.004,60.0,0.0,0,0.0
11:12:00.253849,169,202761,145033,126980,191675,524159,524159,-0.145,-0.791,-0.158,60.0,0.0,0,0.0
11:12:00.260691,170,203849,145417,127358,192577,524159,524159,-0.189,-0.899,0.034,60.0,0.0,0,0.0
11:12:00.267590,171,203974,145192,127263,192428,524159,524159,-0.550,-0.961,0.037,60.0,0.0,0,0.0
11:12:00.274801,172,203376,144719,127129,191694,524159,524159,-0.603,-0.969,-0.113,60.0,0.0,0,0.0
11:12:00.445488,173,203025,144761,127635,191077,524159,524159,-0.499,-1.054,0.026,60.0,0.0,0,0.0
11:12:00.453184,174,202942,145192,128098,191066,524159,524159,-0.504,-0.876,0.077,60.0,0.0,0,0.0
11:12:00.460278,175,203387,145874,128409,191788,524159,524159,-0.591,-0.875,-0.203,60.0,0.0,0,0.0
11:12:00.467262,176,204268,146495,128544,193160,524159,524159,-0.572,-0.807,-0.065,60.0,0.0,0,0.0
11:12:00.474242,177,205131,146918,127966,194816,524159,524159,-0.802,-0.612,-0.030,60.0,0.0,0,0.0
11:12:00.646471,178,206124,147107,126908,196554,524159,524159,-0.811,-0.727,0.096,60.0,475.0,25,0.0
11:12:00.652976,179,206790,147324,126248,198140,524159,524159,-0.684,-0.938,0.052,60.0,0.0,0,0.0
11:12:00.660953,180,207387,147219,125513,199901,524159,524159,-0.829,-0.914,-0.002,60.0,0.0,0,0.0
11:12:00.669208,181,207590,146739,124579,200525,524159,524159,-1.000,-0.719,-0.186,60.0,0.0,0,0.0
11:12:00.675472,182,208037,146124,123926,200732,524159,524159,-0.680,-0.695,-0.157,60.0,0.0,0,0.0
11:12:00.845472,183,207935,145531,123233,200502,524159,524159,-0.620,-0.605,0.164,60.0,0.0,0,0.0
11:12:00.852416,184,207159,144848,122440,199108,524159,524159,-0.870,-0.725,-0.093,60.0,0.0,0,0.0
11:12:00.859404,185,206563,144549,122224,198094,524159,524159,-0.777,-0.605,0.154,60.0,0.0,0,0.0
11:12:00.867564,186,206244,144486,122149,197716,524159,524159,-0.612,-0.645,0.049,60.0,521.7,25,0.0
11:12:00.875476,187,205957,144157,121952,197472,524159,524159,-0.689,-1.009,-0.361,60.0,0.0,0,0.0
11:12:01.045150,188,206033,144069,121882,197717,524159,524159,-0.604,-0.717,-0.220,60.0,0.0,0,0.0
11:12:01.053128,189,205699,143991,121668,197415,524159,524159,-0.704,-0.805,0.096,60.0,0.0,0,0.0
11:12:01.061107,190,204701,143303,121110,196065,524159,524159,-0.649,-1.016,0.063,60.0,0.0,0,0.0
11:12:01.068556,191,203485,143061,121368,194136,524159,524159,-0.948,-0.726,-0.063,60.0,0.0,0,0.0
11:12:01.075537,192,202840,143243,122457,192847,524159,524159,-0.597,-0.783,-0.119,60.0,0.0,0,0.0
11:12:01.246442,193,202582,143903,123511,192616,524159,524159,-0.500,-0.655,-0.167,60.0,0.0,0,0.0
11:12:01.254247,194,202447,144602,124291,192667,524159,524159,-0.514,-0.726,-0.071,60.0,0.0,0,0.0
11:12:01.261482,195,202364,144879,124613,192678,524159,524159,-0.492,-0.935,-0.203,60.0,0.0,0,0.0
11:12:01.268747,196,202158,144917,124716,192469,524159,524159,-0.557,-0.966,-0.196,60.0,0.0,0,0.0
11:12:01.275569,197,201049,144223,124416,191012,524159,524159,-0.769,-0.986,0.160,60.0,0.0,0,0.0
11:12:01.446672,198,199897,143779,124375,190122,524159,524159,-0.519,-1.006,-0.027,60.0,0.0,0,0.0
11:12:01.453629,199,199333,143583,124359,189872,524159,524159,-0.504,-1.180,-0.230,60.0,0.0,0,0.0
11:12:01.460793,200,199213,143570,124782,189555,524159,524159,-0.457,-0.964,-0.134,60.0,0.0,0,0.0
11:12:01.468773,201,199273,143841,125308,189514,524159,524159,-0.515,-0.665,-0.030,60.0,0.0,0,0.0
11:12:01.477752,202,199504,144037,125568,189778,524159,524159,-0.349,-0.708,-0.037,60.0,0.0,0,0.0
11:12:01.646430,203,200104,144433,125818,190273,524159,524159,-0.153,-0.832,-0.110,60.0,0.0,0,0.0
11:12:01.654830,204,200916,144854,126107,190764,524159,524159,-0.099,-0.942,0.041,60.0,0.0,0,0.0
11:12:01.661529,205,200579,144686,126170,190314,524159,524159,-0.408,-1.027,-0.039,60.0,0.0,0,0.0
11:12:01.668387,206,199262,144116,126560,188985,524159,524159,-0.586,-1.064,-0.094,60.0,0.0,0,0.0
11:12:01.675443,207,198722,144554,128241,187527,524159,524159,-0.751,-0.899,0.042,60.0,0.0,0,0.0
11:12:01.848166,208,199071,145007,129369,187501,524159,524159,-0.413,-0.812,0.021,60.0,806.6,25,0.0
11:12:01.855431,209,199958,145983,130568,188730,524159,524159,-0.043,-0.873,-0.134,60.0,0.0,0,0.0
11:12:01.863280,210,200212,146952,131273,190036,524159,524159,-0.364,-0.713,0.035,60.0,0.0,0,0.0
11:12:01.870056,211,199929,147167,131170,190883,524159,524159,-0.745,-0.622,-0.009,60.0,0.0,0,0.0
11:12:01.877521,212,200037,147072,130970,191356,524159,524159,-0.784,-0.791,-0.311,60.0,0.0,0,0.0
11:12:02.048213,213,200403,146556,130623,191532,524159,524159,-0.669,-1.187,-0.431,60.0,0.0,0,0.0
11:12:02.054461,214,200120,145852,129899,190650,524159,524159,-1.020,-1.056,0.154,61.0,0.0,0,0.0
11:12:02.062440,215,200279,146441,129444,191496,524159,524159,-0.904,-0.781,0.140,61.0,0.0,0,0.0
11:12:02.069420,216,201315,146450,128975,192608,524159,524159,-0.763,-0.713,-0.157,61.0,0.0,0,0.0
11:12:02.076402,217,202370,146359,128257,193881,524159,524159,-0.509,-0.477,-0.051,61.0,0.0,0,0.0
11:12:02.246404,218,201852,145401,126390,193113,524159,524159,-0.923,-0.634,-0.151,61.0,0.0,0,0.0
11:12:02.254232,219,201089,144849,126504,192037,524159,524159,-0.683,-0.905,-0.225,61.0,0.0,0,0.0
11:12:02.261550,220,200973,145310,127429,192448,524159,524159,-0.373,-0.863,-0.019,61.0,0.0,0,0.0
11:12:02.268400,221,200766,145600,127767,192967,524159,524159,-0.378,-1.022,-0.160,61.0,0.0,0,0.0
11:12:02.276378,222,200212,145509,128185,192637,524159,524159,-1.085,-0.791,-0.121,61.0,0.0,0,0.0
11:12:02.446365,223,200011,145668,128656,192694,524159,524159,-0.936,-0.712,0.089,61.0,0.0,0,0.0
11:12:02.454396,224,200300,145479,128862,193315,524159,524159,-0.326,-1.092,0.004,61.0,0.0,0,0.0
11:12:02.461652,225,200746,145622,129133,193956,524159,524159,-0.300,-1.058,-0.272,61.0,0.0,0,0.0
11:12:02.468747,226,200896,146022,129287,194369,524159,524159,-0.903,-0.653,-0.098,61.0,0.0,0,0.0
11:12:02.476395,227,201084,146183,129434,194689,524159,524159,-0.658,-0.588,-0.018,61.0,910.3,25,0.0
11:12:02.646586,228,201818,146534,129601,195516,524159,524159,-0.250,-0.799,-0.048,61.0,0.0,0,0.0
11:12:02.654009,229,202328,146962,129825,196077,524159,524159,-0.282,-0.906,-0.239,61.0,0.0,0,0.0
11:12:02.661187,230,201860,146827,129714,195740,524159,524159,-0.686,-0.996,-0.376,61.0,0.0,0,0.0
11:12:02.668168,231,201147,146194,129462,194770,524159,524159,-0.794,-1.009,0.194,61.0,0.0,0,0.0
11:12:02.674518,232,201115,145793,129445,194456,524159,524159,-0.482,-1.206,-0.122,61.0,0.0,0,0.0
11:12:02.846379,233,201709,145845,129588,194919,524159,524159,-0.381,-1.188,-0.339,61.0,0.0,0,0.0
11:12:02.854796,234,201904,145780,129514,195113,524159,524159,-0.485,-0.904,-0.011,61.0,0.0,0,0.0
11:12:02.861869,235,202076,145771,129473,195522,524159,524159,-0.496,-0.689,-0.035,61.0,0.0,0,0.0
11:12:02.868419,236,202545,145979,129567,196189,524159,524159,-0.260,-0.710,-0.006,61.0,0.0,0,0.0
11:12:02.877560,237,203300,146202,129747,196911,524159,524159,-0.136,-0.881,-0.095,61.0,0.0,0,0.0
11:12:03.047472,238,203765,146155,129863,197185,524159,524159,-0.257,-0.833,0.011,61.0,0.0,0,0.0
11:12:03.055378,239,203678,146202,130095,197029,524159,524159,-0.460,-0.905,-0.045,61.0,0.0,0,0.0
11:12:03.062617,240,203416,146130,130400,196484,524159,524159,-0.582,-0.885,-0.136,61.0,0.0,0,0.0
11:12:03.069769,241,203135,146078,130581,195880,524159,524159,-0.601,-0.876,0.006,61.0,0.0,0,0.0
11:12:03.076368,242,203214,146363,130718,196198,524159,524159,-0.494,-0.922,-0.042,61.0,0.0,0,0.0
11:12:03.246363,243,203657,147009,130926,197002,524159,524159,-0.553,-0.816,-0.105,61.0,0.0,0,0.0
11:12:03.254339,244,204553,147618,130870,198100,524159,524159,-0.758,-0.673,0.168,61.0,0.0,0,0.0
11:12:03.261821,245,205800,147988,130104,199537,524159,524159,-0.952,-0.720,0.224,61.0,0.0,0,0.0
11:12:03.269119,246,207458,147631,127984,201547,524159,524159,-0.823,-0.946,0.017,61.0,0.0,0,0.0
11:12:03.276362,247,209310,147557,127068,203987,524159,524159,-0.649,-1.060,-0.047,61.0,689.3,25,0.0
11:12:03.447006,248,210613,147392,126131,205794,524159,524159,-1.059,-0.561,0.053,61.0,0.0,0,0.0
11:12:03.454990,249,211011,146596,125157,206236,524159,524159,-0.706,-0.557,0.013,61.0,0.0,0,0.0
11:12:03.461965,250,210831,145946,124592,205970,524159,524159,-0.769,-0.601,-0.176,61.0,0.0,0,0.0
11:12:03.469944,251,209350,145124,124298,203827,524159,524159,-0.760,-0.751,0.069,61.0,0.0,0,0.0
11:12:03.478919,252,207359,145012,125087,200835,524159,524159,-0.657,-0.831,0.091,61.0,0.0,0,0.0
11:12:03.646746,253,205929,145437,126239,198869,524159,524159,-0.592,-0.745,0.161,61.0,0.0,0,0.0
11:12:03.654207,254,205319,145521,126715,198029,524159,524159,-0.611,-0.898,-0.027,61.0,0.0,0,0.0
11:12:03.661445,255,204704,145200,126951,197021,524159,524159,-0.906,-0.771,-0.114,61.0,0.0,0,0.0
11:12:03.668337,256,204304,145250,127355,196643,524159,524159,-0.650,-0.628,0.207,61.0,0.0,0,0.0
11:12:03.675289,257,204003,145313,127469,196493,524159,524159,-0.479,-0.945,0.273,61.0,0.0,0,0.0
11:12:03.848747,258,203976,145067,127519,196112,524159,524159,-0.531,-1.069,-0.280,61.0,0.0,0,0.0
11:12:03.857720,259,203822,144782,127705,195524,524159,524159,-0.520,-0.832,0.051,61.0,0.0,0,0.0
11:12:03.866114,260,203380,145150,128272,195201,524159,524159,-0.622,-0.686,0.070,61.0,0.0,0,0.0
11:12:03.873280,261,203458,145654,128774,195646,524159,524159,-0.527,-0.827,0.018,61.0,0.0,0,0.0
11:12:03.880480,262,203894,146102,129120,196341,524159,524159,-0.405,-0.853,0.026,61.0,0.0,0,0.0
11:12:04.049375,263,204412,146315,129407,197022,524159,524159,-0.334,-1.005,-0.249,61.0,0.0,0,0.0
11:12:04.056329,264,204061,146100,129525,196655,524159,524159,-0.609,-1.038,0.103,61.0,0.0,0,0.0
11:12:04.063833,265,203889,145710,129754,195909,524159,524159,-0.563,-1.115,-0.011,61.0,0.0,0,0.0
11:12:04.071426,266,204043,145690,129917,195792,524159,524159,-0.514,-1.069,-0.187,61.0,865.0,25,0.0
11:12:04.078577,267,204346,145927,129889,196329,524159,524159,-0.322,-0.942,0.013,61.0,0.0,0,0.0
11:12:04.245980,268,204816,146251,129499,197103,524159,524159,-0.397,-0.767,0.031,61.0,0.0,0,0.0
11:12:04.252994,269,205616,146344,128959,197939,524159,524159,-0.365,-0.733,0.031,61.0,0.0,0,0.0
11:12:04.260941,270,206503,146423,128486,198794,524159,524159,-0.340,-0.812,0.038,61.0,0.0,0,0.0
11:12:04.268921,271,207428,146302,128195,199501,524159,524159,-0.239,-0.964,0.091,61.0,0.0,0,0.0
11:12:04.275899,272,207522,145988,128122,199192,524159,524159,-0.413,-0.916,0.039,61.0,0.0,0,0.0
11:12:04.452371,273,206677,145730,128146,198388,524159,524159,-0.641,-0.938,-0.114,61.0,0.0,0,0.0
11:12:04.464337,274,206476,145714,128440,198036,524159,524159,-0.527,-1.063,-0.091,61.0,0.0,0,0.0
11:12:04.471317,275,206561,145903,128778,198074,524159,524159,-0.398,-0.970,0.081,61.0,0.0,0,0.0
11:12:04.478299,276,206965,146379,129162,198395,524159,524159,-0.550,-0.822,0.003,61.0,0.0,0,0.0
11:12:04.485280,277,207737,147105,129660,199120,524159,524159,-0.722,-0.655,0.029,61.0,0.0,0,0.0
11:12:04.652983,278,209020,147759,130010,200846,524159,524159,-0.613,-0.738,-0.007,61.0,0.0,0,0.0
11:12:04.667942,279,210928,148200,129754,203481,524159,524159,-0.724,-0.786,-0.066,61.0,0.0,0,0.0
11:12:04.674915,280,212655,148144,128181,205486,524159,524159,-0.870,-0.693,0.078,61.0,0.0,0,0.0
11:12:04.682948,281,213691,148173,127167,206731,524159,524159,-0.864,-0.808,0.113,61.0,0.0,0,0.0
11:12:04.689539,282,214044,147955,126284,207634,524159,524159,-0.814,-0.907,0.111,61.0,0.0,0,0.0
11:12:04.848273,283,214130,147219,125147,207949,524159,524159,-0.988,-0.617,0.035,61.0,0.0,0,0.0
11:12:04.856291,284,213965,146304,124260,207582,524159,524159,-0.735,-0.678,-0.023,61.0,0.0,0,0.0
11:12:04.862898,285,212789,145860,124151,205516,524159,524159,-0.630,-0.687,-0.014,61.0,0.0,0,0.0
11:12:04.870991,286,211004,145903,125400,202584,524159,524159,-0.823,-0.639,0.013,61.0,0.0,0,0.0
11:12:04.878007,287,209547,146285,126602,200764,524159,524159,-0.740,-0.550,0.213,61.0,0.0,0,0.0
11:12:05.049091,288,209094,146770,127242,200475,524159,524159,-0.598,-0.708,0.121,61.0,0.0,0,0.0
11:12:05.056289,289,208795,146806,127419,200318,524159,524159,-0.681,-0.912,-0.124,61.0,0.0,0,0.0
11:12:05.063683,290,208102,146723,127446,199906,524159,524159,-0.765,-0.727,-0.008,61.0,0.0,0,0.0
11:12:05.070217,291,207145,146382,127186,199260,524159,524159,-0.771,-0.864,0.180,61.0,0.0,0,0.0
11:12:05.077285,292,206552,145911,126807,198606,524159,524159,-0.644,-0.943,0.174,61.0,0.0,0,0.0
11:12:05.247336,293,206578,145462,126224,198430,524159,524159,-0.697,-0.925,-0.083,61.0,0.0,0,0.0
11:12:05.254730,294,206796,145128,125852,198406,524159,524159,-0.740,-0.739,-0.040,61.0,728.6,25,0.0
11:12:05.261781,295,207086,145210,125816,198833,524159,524159,-0.439,-0.728,0.014,61.0,0.0,0,0.0
11:12:05.269114,296,207478,145625,126033,199260,524159,524159,-0.450,-0.781,-0.008,61.0,0.0,0,0.0
11:12:05.276273,297,207650,145805,126105,199430,524159,524159,-0.395,-0.944,-0.040,61.0,0.0,0,0.0
11:12:05.448121,298,207579,145711,126033,199288,524159,524159,-0.618,-0.989,-0.144,61.0,0.0,0,0.0
11:12:05.454918,299,207013,144934,125573,198387,524159,524159,-0.676,-1.043,0.138,61.0,0.0,0,0.0
11:12:05.462514,300,206918,144611,125532,198075,524159,524159,-0.468,-1.116,-0.076,61.0,0.0,0,0.0
11:12:05.469623,301,207328,144749,125660,198424,524159,524159,-0.402,-0.963,-0.208,61.0,0.0,0,0.0
11:12:05.476255,302,207639,144906,125648,198877,524159,524159,-0.498,-0.777,-0.026,61.0,0.0,0,0.0
11:12:05.647831,303,207736,144962,125541,199157,524159,524159,-0.413,-0.710,0.075,61.0,0.0,0,0.0
11:12:05.654812,304,208076,145154,125565,199517,524159,524159,-0.268,-0.779,0.107,61.0,0.0,0,0.0
11:12:05.661861,305,208529,145195,125379,199825,524159,524159,-0.374,-0.945,-0.072,61.0,0.0,0,0.0
11:12:05.668937,306,208964,145226,125240,199995,524159,524159,-0.487,-0.875,0.080,61.0,0.0,0,0.0
11:12:05.675909,307,209291,144936,124883,199897,524159,524159,-0.588,-0.954,0.037,61.0,0.0,0,0.0
11:12:05.847390,308,209143,144622,124740,199391,524159,524159,-0.616,-0.896,-0.015,61.0,848.5,25,0.0
11:12:05.855405,309,209255,144648,124917,199243,524159,524159,-0.456,-0.978,-0.146,61.0,0.0,0,0.0
11:12:05.862373,310,209597,145218,125467,199530,524159,524159,-0.458,-0.808,-0.032,61.0,0.0,0,0.0
11:12:05.870359,311,210001,145972,126111,199919,524159,524159,-0.639,-0.697,-0.054,61.0,0.0,0,0.0
11:12:05.877308,312,210205,146619,126585,200224,524159,524159,-0.864,-0.595,-0.049,61.0,0.0,0,0.0
11:12:06.047341,313,210635,147274,127061,200661,524159,524159,-0.783,-0.745,-0.021,61.0,0.0,0,0.0
11:12:06.055249,314,210990,147672,127054,201041,524159,524159,-0.883,-0.875,-0.062,61.0,0.0,0,0.0
11:12:06.062340,315,210895,147840,126751,200986,524159,524159,-0.839,-0.712,0.027,61.0,0.0,0,0.0
11:12:06.069550,316,211124,147573,126060,201502,524159,524159,-0.756,-0.861,0.023,61.0,0.0,0,0.0
11:12:06.076238,317,211331,146625,124289,201806,524159,524159,-1.105,-0.561,0.088,61.0,0.0,0,0.0
11:12:06.248098,318,211398,145470,122858,202021,524159,524159,-0.762,-0.605,-0.206,61.0,0.0,0,0.0
11:12:06.255240,319,211057,144659,122408,201652,524159,524159,-0.528,-0.854,-0.351,62.0,0.0,0,0.0
11:12:06.262377,320,210415,144628,123033,200703,524159,524159,-0.890,-0.549,0.019,62.0,0.0,0,0.0
11:12:06.269079,321,209801,144879,123536,199897,524159,524159,-0.875,-0.513,-0.009,62.0,0.0,0,0.0
11:12:06.276240,322,209628,145092,123787,199587,524159,524159,-0.774,-0.729,0.007,62.0,0.0,0,0.0
11:12:06.451368,323,209713,145214,123954,199646,524159,524159,-0.593,-0.800,-0.090,62.0,0.0,0,0.0
11:12:06.461723,324,209667,145368,124166,199700,524159,524159,-0.748,-0.767,0.052,62.0,0.0,0,0.0
11:12:06.468982,325,209306,145499,124430,199677,524159,524159,-0.690,-0.788,-0.139,62.0,0.0,0,0.0
11:12:06.475963,326,209008,145490,124407,199552,524159,524159,-0.828,-0.746,-0.265,62.0,0.0,0,0.0
11:12:06.482970,327,208801,145266,124210,199403,524159,524159,-0.641,-0.923,-0.135,62.0,0.0,0,0.0
11:12:06.653569,328,208757,145052,123998,199357,524159,524159,-0.633,-0.800,-0.121,62.0,0.0,0,0.0
11:12:06.660543,329,208773,145051,123895,199498,524159,524159,-0.614,-0.736,-0.133,62.0,0.0,0,0.0
11:12:06.668408,330,209017,145090,123852,199713,524159,524159,-0.668,-0.703,-0.083,62.0,0.0,0,0.0
11:12:06.676386,331,209295,145133,123856,199915,524159,524159,-0.607,-0.801,-0.032,62.0,0.0,0,0.0
11:12:06.685432,332,209337,144957,123797,199979,524159,524159,-0.618,-0.964,-0.111,62.0,0.0,0,0.0
11:12:06.848727,333,208968,144560,123543,199429,524159,524159,-0.805,-0.878,-0.142,62.0,0.0,0,0.0
11:12:06.855206,334,208493,144195,123392,199037,524159,524159,-0.645,-0.991,-0.050,62.0,0.0,0,0.0
11:12:06.863343,335,208246,143939,123279,199014,524159,524159,-0.575,-0.941,-0.018,62.0,0.0,0,0.0
11:12:06.870553,336,207960,143968,123421,199025,524159,524159,-0.645,-0.774,-0.063,62.0,0.0,0,0.0
11:12:06.877455,337,208194,144430,123848,199435,524159,524159,-0.515,-0.615,-0.048,62.0,0.0,0,0.0
11:12:07.047355,338,208833,144792,124154,199996,524159,524159,-0.400,-0.767,0.099,62.0,0.0,0,0.0
11:12:07.054361,339,209722,145074,124318,200749,524159,524159,-0.395,-0.847,-0.030,62.0,0.0,0,0.0
11:12:07.062315,340,210710,145198,124500,201205,524159,524159,-0.056,-1.043,-0.761,62.0,0.0,0,0.0
11:12:07.069387,341,211039,145287,124758,200774,524159,524159,-0.558,-0.840,0.264,62.0,0.0,0,0.0
11:12:07.076199,342,210863,145174,124722,200474,524159,524159,-0.724,-0.858,-0.092,62.0,0.0,0,0.0
11:12:07.246741,343,210598,144987,124641,200277,524159,524159,-0.731,-0.908,-0.229,62.0,0.0,0,0.0
11:12:07.254125,344,210510,144910,124631,200323,524159,524159,-0.502,-0.897,-0.167,62.0,0.0,0,0.0
11:12:07.262095,345,210580,145306,125060,200555,524159,524159,-0.417,-0.824,-0.029,62.0,1358.4,25,0.0
11:12:07.273064,346,210714,146199,125866,200825,524159,524159,-0.530,-0.697,-0.119,62.0,0.0,0,0.0
11:12:07.280046,347,210856,146902,126189,201156,524159,524159,-0.882,-0.646,0.015,62.0,0.0,0,0.0
11:12:07.447255,348,211442,147428,126232,201748,524159,524159,-0.904,-0.597,-0.047,62.0,0.0,0,0.0
11:12:07.455131,349,212484,147929,125904,203050,524159,524159,-0.761,-0.795,0.051,62.0,0.0,0,0.0
11:12:07.462380,350,213518,148409,125441,204394,524159,524159,-0.874,-0.777,0.016,62.0,0.0,0,0.0
11:12:07.469553,351,214513,148340,124970,205499,524159,524159,-0.917,-1.003,0.159,62.0,0.0,0,0.0
11:12:07.476169,352,214870,147185,123694,206054,524159,524159,-1.074,-0.572,0.197,62.0,0.0,0,0.0
11:12:07.649512,353,215524,146716,123328,206816,524159,524159,-0.807,-0.561,-0.116,62.0,0.0,0,0.0
11:12:07.656170,354,215532,146034,122891,206353,524159,524159,-0.750,-0.580,-0.225,62.0,0.0,0,0.0
11:12:07.663926,355,214184,145676,122844,204087,524159,524159,-0.856,-0.570,-0.134,62.0,0.0,0,0.0
11:12:07.670919,356,212569,145846,123564,202253,524159,524159,-0.645,-0.697,0.271,62.0,0.0,0,0.0
11:12:07.678010,357,211571,145985,124122,201268,524159,524159,-0.665,-0.748,0.231,62.0,0.0,0,0.0
11:12:07.847467,358,210603,145903,124517,200297,524159,524159,-0.649,-0.971,-0.096,62.0,0.0,0,0.0
11:12:07.855379,359,209953,145375,124594,199601,524159,524159,-0.760,-0.858,-0.066,62.0,0.0,0,0.0
11:12:07.862360,360,209489,145415,124920,199310,524159,524159,-0.786,-0.780,-0.120,62.0,0.0,0,0.0
11:12:07.869341,361,209380,145336,124879,199393,524159,524159,-0.559,-0.905,0.076,62.0,0.0,0,0.0
11:12:07.876322,362,209318,145121,124738,199365,524159,524159,-0.519,-0.894,0.013,62.0,0.0,0,0.0
11:12:08.049253,363,209333,144989,124726,199241,524159,524159,-0.750,-0.805,-0.090,62.0,0.0,0,0.0
11:12:08.056165,364,209228,144899,124888,199018,524159,524159,-0.610,-0.756,-0.041,64.0,0.0,0,0.0
11:12:08.063144,365,209453,145172,125173,199383,524159,524159,-0.359,-0.750,0.029,64.0,0.0,0,0.0
11:12:08.070903,366,209619,145510,125337,199605,524159,524159,-0.528,-0.748,0.029,64.0,0.0,0,0.0
11:12:08.078159,367,209466,145616,125428,199560,524159,524159,-0.640,-0.871,-0.104,64.0,1042.1,25,0.0
11:12:08.248120,368,209059,145437,125438,199143,524159,524159,-0.700,-1.002,-0.034,64.0,0.0,0,0.0
11:12:08.255551,369,208588,144940,125414,198208,524159,524159,-0.543,-1.124,0.010,66.0,0.0,0,0.0
11:12:08.263100,370,208535,144705,125518,198143,524159,524159,-0.519,-1.289,-0.524,66.0,0.0,0,0.0
11:12:08.270445,371,208746,144823,125849,198282,524159,524159,-0.232,-1.103,-0.215,66.0,0.0,0,0.0
11:12:08.277136,372,208378,144701,125638,198152,524159,524159,-0.522,-0.753,-0.068,66.0,0.0,0,0.0
11:12:08.447633,373,208445,144584,125378,198356,524159,524159,-0.592,-0.586,-0.017,66.0,0.0,0,0.0
11:12:08.454615,374,209256,144936,125524,199141,524159,524159,-0.258,-0.722,0.155,69.0,0.0,0,0.0
11:12:08.461596,375,210185,145446,125781,199787,524159,524159,-0.043,-1.033,-0.271,69.0,0.0,0,0.0
11:12:08.468578,376,210564,145590,125840,199741,524159,524159,-0.197,-0.898,0.163,69.0,0.0,0,0.0
11:12:08.476555,377,209971,145041,125511,198865,524159,524159,-0.614,-0.977,-0.219,69.0,0.0,0,0.0
11:12:08.649132,378,209586,144938,125977,197984,524159,524159,-0.416,-0.953,-0.157,69.0,0.0,0,0.0
11:12:08.656136,379,209144,145035,126199,197450,524159,524159,-0.831,-0.791,0.118,71.0,0.0,0,0.0
11:12:08.663226,380,209435,145622,126974,198078,524159,524159,-0.259,-0.925,-0.082,71.0,0.0,0,0.0
11:12:08.670766,381,210233,146845,128075,199141,524159,524159,-0.291,-0.883,-0.142,71.0,0.0,0,0.0
11:12:08.677148,382,210354,147353,128022,199499,524159,524159,-0.937,-0.539,-0.065,71.0,0.0,0,0.0
11:12:08.848128,383,210219,147575,128133,199182,524159,524159,-0.924,-0.756,0.080,71.0,0.0,0,0.0
11:12:08.855111,384,210398,147749,128421,199357,524159,524159,-0.719,-0.897,0.046,73.0,0.0,0,0.0
11:12:08.863114,385,211030,147782,127886,200114,524159,524159,-0.933,-0.916,0.132,73.0,0.0,0,0.0
11:12:08.871066,386,211497,147254,126453,200778,524159,524159,-0.893,-0.692,0.306,73.0,0.0,0,0.0
11:12:08.877964,387,212222,146396,124864,201695,524159,524159,-1.012,-0.735,-0.235,73.0,0.0,0,0.0
11:12:09.047912,388,212308,145777,124055,201803,524159,524159,-0.785,-0.449,-0.045,73.0,0.0,0,0.0
11:12:09.055890,389,211776,145249,123529,201172,524159,524159,-0.733,-0.641,0.012,73.0,594.9,25,0.0
11:12:09.062870,390,210990,144936,123297,200316,524159,524159,-0.709,-0.664,0.087,73.0,0.0,0,0.0
11:12:09.069852,391,209669,145403,124706,198551,524159,524159,-0.860,-0.556,0.112,73.0,0.0,0,0.0
11:12:09.077831,392,209184,145998,126494,197835,524159,524159,-0.742,-0.764,0.111,73.0,0.0,0,0.0
11:12:09.251458,393,209386,146223,127574,198083,524159,524159,-0.813,-0.848,0.113,73.0,0.0,0,0.0
11:12:09.260431,394,209690,146232,128108,198722,524159,524159,-0.749,-0.626,0.099,73.0,0.0,0,0.0
11:12:09.268250,395,209767,145698,127531,199464,524159,524159,-0.573,-0.798,0.227,73.0,0.0,0,0.0
11:12:09.275477,396,209794,145140,126576,199637,524159,524159,-0.804,-0.831,-0.292,73.0,0.0,0,0.0
11:12:09.283349,397,209866,144709,125993,199689,524159,524159,-0.595,-0.853,0.122,73.0,0.0,0,0.0
11:12:09.447977,398,209838,144143,125307,199524,524159,524159,-0.634,-0.761,0.066,73.0,0.0,0,0.0
11:12:09.455987,399,209868,143843,124807,199592,524159,524159,-0.573,-0.721,0.002,74.0,730.2,25,0.0
11:12:09.462937,400,209946,143800,124531,199849,524159,524159,-0.546,-0.706,0.095,74.0,0.0,0,0.0
11:12:09.469924,401,210126,143968,124518,200132,524159,524159,-0.515,-0.941,-0.132,74.0,0.0,0,0.0
11:12:09.478092,402,210372,144192,124698,200277,524159,524159,-0.508,-0.972,-0.064,74.0,0.0,0,0.0
11:12:09.649031,403,210008,144129,124800,199609,524159,524159,-0.681,-0.990,0.150,74.0,0.0,0,0.0
11:12:09.656084,404,210041,144044,124930,199383,524159,524159,-0.614,-1.108,-0.213,74.0,0.0,0,0.0
11:12:09.662730,405,210182,143978,124971,199483,524159,524159,-0.487,-1.032,-0.057,74.0,0.0,0,0.0
11:12:09.670708,406,210378,144213,125093,199882,524159,524159,-0.471,-0.847,0.022,74.0,0.0,0,0.0
11:12:09.677688,407,210620,144449,125185,200252,524159,524159,-0.470,-0.719,0.031,74.0,0.0,0,0.0
11:12:09.849576,408,210985,144669,125261,200728,524159,524159,-0.333,-0.753,0.033,74.0,0.0,0,0.0
11:12:09.857176,409,211320,144850,125360,201147,524159,524159,-0.227,-0.902,0.000,74.0,0.0,0,0.0
11:12:09.864579,410,211332,144779,125339,201062,524159,524159,-0.309,-0.996,-0.007,74.0,0.0,0,0.0
11:12:09.871681,411,210920,144520,125341,200480,524159,524159,-0.522,-0.914,-0.005,74.0,0.0,0,0.0
11:12:09.878841,412,210883,144518,125625,200036,524159,524159,-0.461,-1.012,-0.074,74.0,0.0,0,0.0
11:12:10.049808,413,210858,144785,126156,199636,524159,524159,-0.633,-0.761,-0.023,74.0,0.0,0,0.0
11:12:10.056766,414,210734,145064,126548,199660,524159,524159,-0.608,-0.778,-0.035,74.0,0.0,0,0.0
11:12:10.064617,415,210582,144853,126646,199813,524159,524159,-0.361,-0.936,-0.016,74.0,495.6,25,0.0
11:12:10.071870,416,210247,144270,125948,199588,524159,524159,-0.680,-0.700,0.051,74.0,0.0,0,0.0
11:12:10.078852,417,210502,144720,126367,199441,524159,524159,-0.868,-0.694,0.207,74.0,0.0,0,0.0
11:12:10.249349,418,211208,145493,126973,199913,524159,524159,-0.766,-0.852,0.034,74.0,0.0,0,0.0
11:12:10.256068,419,212090,145513,126140,201042,524159,524159,-0.852,-0.979,-0.062,73.0,0.0,0,0.0
11:12:10.263818,420,212502,145204,124816,201745,524159,524159,-1.031,-0.607,0.279,73.0,0.0,0,0.0
11:12:10.271204,421,212767,144815,124083,201962,524159,524159,-0.739,-0.728,-0.063,73.0,0.0,0,0.0
11:12:10.278158,422,212522,144506,123634,201611,524159,524159,-0.724,-0.638,0.165,73.0,0.0,0,0.0
11:12:10.448553,423,211671,144580,123759,200571,524159,524159,-0.832,-0.513,0.149,73.0,0.0,0,0.0
11:12:10.455533,424,211415,144905,124487,200118,524159,524159,-0.815,-0.661,0.077,73.0,0.0,0,0.0
11:12:10.463511,425,211530,145121,124964,200279,524159,524159,-0.589,-0.640,0.232,73.0,0.0,0,0.0
11:12:10.470493,426,211977,145319,125047,200757,524159,524159,-0.726,-0.763,-0.247,73.0,0.0,0,0.0
11:12:10.477991,427,212068,145433,125036,200821,524159,524159,-0.807,-0.601,0.060,73.0,0.0,0,0.0
11:12:10.649034,428,211518,145471,124970,200461,524159,524159,-0.694,-0.795,0.137,73.0,0.0,0,0.0
11:12:10.656041,429,210994,145423,124893,199967,524159,524159,-0.818,-0.912,-0.014,73.0,0.0,0,0.0
11:12:10.664048,430,210581,145239,124810,199405,524159,524159,-0.837,-0.790,0.104,73.0,0.0,0,0.0
11:12:10.671047,431,210872,145083,124754,199706,524159,524159,-0.639,-0.833,-0.147,73.0,818.1,25,0.0
11:12:10.678029,432,211291,145059,124759,200161,524159,524159,-0.617,-0.657,-0.035,73.0,0.0,0,0.0
11:12:10.849273,433,211525,145190,124921,200428,524159,524159,-0.688,-0.631,0.020,73.0,0.0,0,0.0
11:12:10.856535,434,211955,145335,125125,200879,524159,524159,-0.511,-0.710,-0.099,73.0,0.0,0,0.0
11:12:10.864230,435,212092,145681,125420,201189,524159,524159,-0.567,-0.925,-0.359,73.0,0.0,0,0.0
11:12:10.871178,436,211353,145426,125274,200390,524159,524159,-0.772,-0.916,-0.008,73.0,0.0,0,0.0
11:12:10.878079,437,210520,145042,125113,199466,524159,524159,-0.771,-0.978,0.069,73.0,0.0,0,0.0
11:12:11.050030,438,210553,144758,124761,199666,524159,524159,-0.707,-0.958,-0.069,73.0,0.0,0,0.0
11:12:11.057020,439,210874,144484,124478,200022,524159,524159,-0.519,-0.999,-0.172,73.0,0.0,0,0.0
11:12:11.064570,440,211192,144605,124689,200296,524159,524159,-0.508,-0.840,-0.068,73.0,0.0,0,0.0
11:12:11.071124,441,211328,144727,124815,200399,524159,524159,-0.530,-0.636,-0.003,73.0,0.0,0,0.0
11:12:11.079011,442,211647,144997,125051,200832,524159,524159,-0.386,-0.743,-0.014,73.0,0.0,0,0.0
11:12:11.248643,443,212369,145584,125530,201425,524159,524159,-0.211,-0.911,-0.090,73.0,0.0,0,0.0
11:12:11.255657,444,212784,145849,125635,201657,524159,524159,-0.354,-0.961,-0.069,73.0,0.0,0,0.0
11:12:11.262605,445,212422,145291,125114,201196,524159,524159,-0.652,-0.931,-0.010,73.0,0.0,0,0.0
11:12:11.269612,446,211904,144688,124805,200510,524159,524159,-0.599,-0.878,-0.036,73.0,0.0,0,0.0
11:12:11.277564,447,211741,144992,125467,200465,524159,524159,-0.442,-0.920,-0.057,73.0,0.0,0,0.0
11:12:11.449502,448,212038,145710,126258,200864,524159,524159,-0.560,-0.803,-0.093,73.0,0.0,0,0.0
11:12:11.456006,449,212281,146443,126935,201177,524159,524159,-0.708,-0.742,0.000,73.0,0.0,0,0.0
11:12:11.464063,450,212719,147082,127338,201615,524159,524159,-0.769,-0.690,-0.100,73.0,0.0,0,0.0
11:12:11.471735,451,213495,147580,127312,202524,524159,524159,-0.774,-0.739,-0.062,73.0,0.0,0,0.0
11:12:11.479013,452,214422,147961,126870,203966,524159,524159,-0.773,-0.762,0.052,73.0,0.0,0,0.0
11:12:11.650399,453,215462,148049,125986,205911,524159,524159,-0.839,-0.887,0.013,73.0,0.0,0,0.0
11:12:11.657712,454,216244,148114,125664,207470,524159,524159,-0.872,-0.683,0.333,73.0,0.0,0,0.0
11:12:11.664998,455,216520,147531,124713,208019,524159,524159,-1.050,-0.668,-0.235,73.0,0.0,0,0.0
11:12:11.672607,456,216862,146889,124093,208335,524159,524159,-0.678,-0.530,-0.064,73.0,0.0,0,0.0
11:12:11.679848,457,216407,146263,123407,207431,524159,524159,-0.611,-0.605,0.103,73.0,0.0,0,0.0
11:12:11.849927,458,214644,145877,123022,204655,524159,524159,-0.958,-0.513,-0.053,73.0,0.0,0,0.0
11:12:11.856884,459,211670,145585,123804,201192,524159,524159,-0.876,-0.557,0.191,72.0,0.0,0,0.0
11:12:11.863863,460,209784,145344,124905,199266,524159,524159,-0.548,-0.705,0.202,72.0,0.0,0,0.0
11:12:11.871842,461,209362,144947,125416,198468,524159,524159,-0.881,-1.062,-0.154,72.0,0.0,0,0.0
11:12:11.878811,462,209841,144588,125866,198573,524159,524159,-0.850,-0.610,-0.001,72.0,0.0,0,0.0
11:12:12.049747,463,210416,144069,125471,199460,524159,524159,-0.758,-0.717,0.068,72.0,0.0,0,0.0
11:12:12.057188,464,210982,143717,125098,199839,524159,524159,-0.646,-0.995,-0.105,72.0,0.0,0,0.0
11:12:12.064375,465,211444,143161,124413,200104,524159,524159,-0.670,-0.866,0.023,72.0,0.0,0,0.0
11:12:12.072668,466,211716,142878,123929,200100,524159,524159,-0.812,-0.641,0.006,72.0,0.0,0,0.0
11:12:12.079972,467,212018,142903,123682,200644,524159,524159,-0.623,-0.613,0.087,72.0,0.0,0,0.0
11:12:12.249569,468,212499,143285,123697,201394,524159,524159,-0.512,-0.762,-0.123,72.0,0.0,0,0.0
11:12:12.257546,469,212948,143787,124079,201978,524159,524159,-0.475,-0.844,-0.177,72.0,777.8,25,0.0
11:12:12.264595,470,212452,143779,124127,201901,524159,524159,-0.636,-0.988,-0.255,72.0,0.0,0,0.0
11:12:12.272472,471,211742,143257,123804,201248,524159,524159,-0.712,-0.975,0.167,72.0,0.0,0,0.0
11:12:12.279822,472,211530,142799,123462,201059,524159,524159,-0.689,-1.028,-0.009,72.0,0.0,0,0.0
11:12:12.453797,473,211632,142656,123273,201473,524159,524159,-0.559,-1.072,-0.196,72.0,0.0,0,0.0
11:12:12.461058,474,211833,143029,123641,201886,524159,524159,-0.469,-0.899,-0.008,72.0,0.0,0,0.0
11:12:12.468612,475,211900,143454,124037,202157,524159,524159,-0.510,-0.646,-0.036,72.0,0.0,0,0.0
11:12:12.474964,476,212077,143970,124523,202610,524159,524159,-0.394,-0.654,-0.013,72.0,0.0,0,0.0
11:12:12.483320,477,212603,144593,124990,203220,524159,524159,-0.208,-0.819,-0.056,72.0,0.0,0,0.0
11:12:12.654671,478,213290,144955,125269,203704,524159,524159,-0.223,-0.925,-0.128,72.0,0.0,0,0.0
11:12:12.663646,479,213090,144682,125026,203488,524159,524159,-0.597,-0.954,-0.010,72.0,0.0,0,0.0
11:12:12.671262,480,212106,143901,124520,202658,524159,524159,-0.710,-0.901,-0.064,72.0,0.0,0,0.0
11:12:12.677998,481,211276,143339,124434,201668,524159,524159,-0.590,-1.015,-0.030,72.0,0.0,0,0.0
11:12:12.685982,482,211162,143393,124799,201717,524159,524159,-0.552,-0.882,-0.162,72.0,0.0,0,0.0
11:12:12.851502,483,211650,144235,125709,202616,524159,524159,-0.479,-0.861,-0.172,72.0,0.0,0,0.0
11:12:12.859268,484,212321,145423,126763,203370,524159,524159,-0.611,-0.687,0.008,72.0,0.0,0,0.0
11:12:12.866933,485,213045,146513,127463,204019,524159,524159,-0.936,-0.605,-0.177,72.0,1279.3,25,0.0
11:12:12.874346,486,214070,147492,128019,204639,524159,524159,-0.872,-0.651,0.041,72.0,0.0,0,0.0
11:12:12.881329,487,214963,148175,128095,205404,524159,524159,-0.802,-0.804,0.068,72.0,0.0,0,0.0
11:12:13.051298,488,215762,148173,127009,206460,524159,524159,-0.827,-0.910,-0.107,72.0,0.0,0,0.0
11:12:13.058538,489,216068,147678,125840,207364,524159,524159,-0.981,-0.703,0.247,72.0,0.0,0,0.0
11:12:13.064946,490,216098,146945,124791,207705,524159,524159,-0.867,-0.615,-0.022,72.0,0.0,0,0.0
11:12:13.073286,491,215926,146139,123981,207581,524159,524159,-0.701,-0.532,-0.133,72.0,0.0,0,0.0
11:12:13.080590,492,214822,145564,123440,206133,524159,524159,-0.792,-0.565,-0.120,72.0,0.0,0,0.0
11:12:13.250959,493,213578,145603,123920,204675,524159,524159,-0.906,-0.500,-0.134,72.0,283.2,25,0.0
11:12:13.257946,494,212359,145532,124657,203581,524159,524159,-0.840,-0.836,0.228,72.0,0.0,0,0.0
11:12:13.265917,495,211611,146187,125690,203648,524159,524159,-0.546,-0.645,-0.042,72.0,0.0,0,0.0
11:12:13.273423,496,210641,146482,125982,203239,524159,524159,-0.814,-0.993,-0.288,72.0,0.0,0,0.0
11:12:13.281400,497,209475,146107,125947,202543,524159,524159,-0.764,-0.770,0.020,72.0,0.0,0,0.0
11:12:13.450367,498,208723,145772,125676,202203,524159,524159,-0.829,-0.824,0.039,72.0,0.0,0,0.0
11:12:13.456936,499,208325,145448,125182,201806,524159,524159,-0.808,-0.718,0.064,72.0,0.0,0,0.0
11:12:13.464929,500,208597,145102,124469,201980,524159,524159,-0.640,-0.782,0.006,72.0,0.0,0,0.0
11:12:13.472282,501,209157,144821,123798,202206,524159,524159,-0.795,-0.726,-0.122,72.0,0.0,0,0.0
11:12:13.479873,502,209508,144410,123402,202230,524159,524159,-0.624,-0.772,-0.271,72.0,0.0,0,0.0
11:12:13.649872,503,209638,144596,123675,202434,524159,524159,-0.568,-0.640,0.051,72.0,0.0,0,0.0
11:12:13.657054,504,209723,144912,123996,202641,524159,524159,-0.597,-0.838,-0.045,72.0,0.0,0,0.0
11:12:13.665033,505,209573,144772,123952,202605,524159,524159,-0.598,-0.981,-0.307,72.0,0.0,0,0.0
11:12:13.672058,506,208585,144297,123740,201926,524159,524159,-0.646,-0.907,0.092,72.0,0.0,0,0.0
11:12:13.678559,507,207642,144025,123757,201351,524159,524159,-0.637,-1.006,-0.208,72.0,0.0,0,0.0
11:12:13.849987,508,207076,143938,123981,201074,524159,524159,-0.557,-0.993,-0.189,72.0,0.0,0,0.0
11:12:13.856904,509,206727,144189,124444,200993,524159,524159,-0.493,-0.807,-0.003,72.0,0.0,0,0.0
11:12:13.865098,510,206622,144586,124928,201067,524159,524159,-0.500,-0.658,-0.103,72.0,0.0,0,0.0
11:12:13.872512,511,206771,144924,125246,201265,524159,524159,-0.407,-0.760,-0.047,72.0,0.0,0,0.0
11:12:13.879192,512,207148,145264,125493,201547,524159,524159,-0.367,-0.822,-0.114,72.0,0.0,0,0.0
11:12:14.051303,513,207250,145384,125628,201598,524159,524159,-0.447,-0.964,-0.167,72.0,0.0,0,0.0
11:12:14.059282,514,206948,145340,125835,201257,524159,524159,-0.632,-0.899,-0.033,73.0,899.9,25,0.0
11:12:14.065886,515,206464,145065,125891,200611,524159,524159,-0.689,-0.921,-0.225,73.0,0.0,0,0.0
11:12:14.074041,516,206367,144924,126102,200378,524159,524159,-0.516,-1.004,-0.122,73.0,0.0,0,0.0
11:12:14.081402,517,206349,145173,126463,200450,524159,524159,-0.558,-0.839,-0.057,73.0,0.0,0,0.0
11:12:14.254433,518,206239,145493,126899,200521,524159,524159,-0.634,-0.730,-0.062,73.0,0.0,0,0.0
11:12:14.261841,519,206194,146031,127486,200774,524159,524159,-0.653,-0.658,-0.083,73.0,0.0,0,0.0
11:12:14.269125,520,206334,146580,127927,201101,524159,524159,-0.630,-0.765,-0.029,73.0,0.0,0,0.0
11:12:14.276405,521,206565,146930,127741,201504,524159,524159,-0.801,-0.636,-0.004,73.0,0.0,0,0.0
11:12:14.283594,522,206942,147317,127230,202009,524159,524159,-0.905,-0.538,0.040,73.0,0.0,0,0.0
11:12:14.450983,523,207525,147625,126388,202755,524159,524159,-0.864,-0.875,-0.120,73.0,0.0,0,0.0
11:12:14.458117,524,207831,147335,125328,203314,524159,524159,-0.765,-0.923,-0.020,74.0,0.0,0,0.0
11:12:14.465098,525,207540,146710,124135,203192,524159,524159,-1.083,-0.590,0.178,74.0,0.0,0,0.0
11:12:14.472079,526,207346,145931,122964,202673,524159,524159,-0.905,-0.549,-0.111,74.0,0.0,0,0.0
11:12:14.480057,527,207255,145112,122112,202389,524159,524159,-0.651,-0.767,-0.054,74.0,0.0,0,0.0
11:12:14.654389,528,206597,144977,122240,201770,524159,524159,-0.816,-0.543,-0.043,74.0,0.0,0,0.0
11:12:14.663002,529,205818,144988,122882,200889,524159,524159,-0.921,-0.609,-0.003,75.0,0.0,0,0.0
11:12:14.670979,530,205230,144869,123485,200368,524159,524159,-0.771,-0.632,0.133,75.0,0.0,0,0.0
11:12:14.677961,531,204796,144854,123872,200183,524159,524159,-0.701,-0.700,-0.010,75.0,0.0,0,0.0
11:12:14.685939,532,204470,144795,124089,200045,524159,524159,-0.651,-0.999,-0.199,75.0,0.0,0,0.0
11:12:14.850701,533,203942,144897,124459,199768,524159,524159,-0.730,-0.630,0.043,75.0,0.0,0,0.0
11:12:14.858686,534,203272,145121,124790,199454,524159,524159,-0.843,-0.746,0.017,75.0,843.9,25,0.0
11:12:14.865799,535,202811,144907,124778,199141,524159,524159,-0.589,-0.951,-0.050,75.0,0.0,0,0.0
11:12:14.873660,536,202790,144734,124687,199140,524159,524159,-0.502,-0.960,-0.104,75.0,0.0,0,0.0
11:12:14.880902,537,202641,144561,124519,198721,524159,524159,-0.772,-0.770,-0.052,75.0,0.0,0,0.0
11:12:15.049852,538,202586,144513,124502,198725,524159,524159,-0.547,-0.756,0.021,75.0,0.0,0,0.0
11:12:15.057693,539,202847,144750,124674,199118,524159,524159,-0.465,-0.734,0.063,75.0,229.7,25,0.0
11:12:15.064842,540,203103,144985,124864,199361,524159,524159,-0.500,-0.760,-0.062,75.0,0.0,0,0.0
11:12:15.072658,541,202843,144825,124786,199281,524159,524159,-0.555,-1.047,-0.269,75.0,0.0,0,0.0
11:12:15.079956,542,201888,144398,124612,198277,524159,524159,-0.741,-0.963,0.079,75.0,0.0,0,0.0
11:12:15.250545,543,201135,144232,124742,197507,524159,524159,-0.565,-1.033,-0.047,75.0,0.0,0,0.0
11:12:15.258523,544,200966,144281,124909,197602,524159,524159,-0.405,-1.084,-0.307,75.0,0.0,0,0.0
11:12:15.265502,545,200755,144429,125043,197641,524159,524159,-0.486,-0.903,0.038,75.0,0.0,0,0.0
11:12:15.273481,546,200659,144432,124926,197656,524159,524159,-0.520,-0.722,0.060,75.0,0.0,0,0.0
11:12:15.280503,547,200886,144599,124991,197903,524159,524159,-0.404,-0.742,-0.001,75.0,0.0,0,0.0
11:12:15.449875,548,201466,145031,125300,198382,524159,524159,-0.243,-0.891,-0.155,75.0,0.0,0,0.0
11:12:15.457854,549,202033,145382,125570,198698,524159,524159,-0.329,-0.935,-0.047,75.0,0.0,0,0.0
11:12:15.464834,550,201641,145228,125324,198068,524159,524159,-0.774,-0.753,-0.007,75.0,0.0,0,0.0
11:12:15.471938,551,201116,145069,125438,197570,524159,524159,-0.559,-0.945,-0.243,75.0,0.0,0,0.0
11:12:15.479874,552,200790,145178,125846,197052,524159,524159,-0.492,-0.971,0.129,75.0,0.0,0,0.0
11:12:15.651202,553,200725,145535,126267,197196,524159,524159,-0.516,-0.880,-0.239,75.0,483.8,25,0.0
11:12:15.658183,554,200771,146118,126747,197644,524159,524159,-0.627,-0.768,-0.031,75.0,0.0,0,0.0
11:12:15.665560,555,200634,146552,126722,197940,524159,524159,-0.911,-0.550,-0.008,75.0,0.0,0,0.0
11:12:15.672540,556,201208,147167,126861,198660,524159,524159,-0.834,-0.623,-0.037,75.0,0.0,0,0.0
11:12:15.680429,557,202142,147882,126919,199867,524159,524159,-0.788,-0.659,-0.023,75.0,0.0,0,0.0
11:12:15.851893,558,203182,148474,126443,201495,524159,524159,-0.799,-0.999,-0.243,75.0,0.0,0,0.0
11:12:15.861860,559,203822,148435,125666,202597,524159,524159,-1.072,-0.718,0.339,75.0,0.0,0,0.0
11:12:15.867845,560,204477,148355,125195,203610,524159,524159,-1.014,-0.446,0.003,75.0,0.0,0,0.0
11:12:15.876679,561,205286,147848,124632,204761,524159,524159,-0.712,-0.662,-0.010,75.0,0.0,0,0.0
11:12:15.884664,562,204926,146927,123597,204321,524159,524159,-0.792,-0.516,0.055,75.0,0.0,0,0.0
11:12:16.051167,563,203738,146224,122807,202638,524159,524159,-0.876,-0.509,-0.115,75.0,0.0,0,0.0
11:12:16.063507,564,202644,145651,122315,201104,524159,524159,-0.734,-0.625,0.173,75.0,0.0,0,0.0
11:12:16.070667,565,201327,145373,122351,199593,524159,524159,-0.711,-0.648,0.085,75.0,0.0,0,0.0
11:12:16.077797,566,199734,145348,122690,198070,524159,524159,-0.864,-0.832,-0.126,75.0,0.0,0,0.0
11:12:16.085362,567,198075,145358,123056,196771,524159,524159,-0.862,-0.591,0.174,75.0,0.0,0,0.0
11:12:16.256839,568,196920,145400,123535,195844,524159,524159,-0.786,-0.907,0.044,75.0,0.0,0,0.0
11:12:16.265779,569,196731,145273,123883,195609,524159,524159,-0.557,-0.999,-0.056,75.0,0.0,0,0.0
11:12:16.273821,570,196748,144943,123912,195381,524159,524159,-0.702,-0.885,-0.042,75.0,0.0,0,0.0
11:12:16.280801,571,196773,144512,123916,195104,524159,524159,-0.693,-0.730,-0.051,75.0,0.0,0,0.0
11:12:16.287938,572,197032,144598,124234,195442,524159,524159,-0.441,-0.643,0.014,75.0,0.0,0,0.0
11:12:16.454300,573,197212,145023,124595,195740,524159,524159,-0.600,-0.640,0.055,75.0,0.0,0,0.0
11:12:16.461891,574,197451,145203,124728,196011,524159,524159,-0.435,-0.883,-0.120,75.0,892.2,25,0.0
11:12:16.469251,575,197508,145151,124696,196075,524159,524159,-0.492,-1.050,-0.345,75.0,0.0,0,0.0
11:12:16.475796,576,196557,144186,124049,194699,524159,524159,-0.697,-1.155,0.065,75.0,0.0,0,0.0
11:12:16.483602,577,195776,143740,124159,193335,524159,524159,-0.620,-1.100,-0.028,75.0,0.0,0,0.0
11:12:16.650800,578,195498,143751,124379,193674,524159,524159,-0.506,-1.017,-0.004,75.0,0.0,0,0.0
11:12:16.658783,579,195473,143913,124554,193955,524159,524159,-0.462,-0.887,-0.024,75.0,0.0,0,0.0
11:12:16.665978,580,195348,144005,124585,193977,524159,524159,-0.514,-0.644,0.040,75.0,0.0,0,0.0
11:12:16.672960,581,195355,144153,124628,194118,524159,524159,-0.380,-0.589,0.154,75.0,0.0,0,0.0
11:12:16.680382,582,195802,144609,124924,194537,524159,524159,-0.193,-0.976,-0.283,75.0,0.0,0,0.0
11:12:16.852351,583,196466,145107,125269,194926,524159,524159,-0.049,-0.893,-0.187,75.0,0.0,0,0.0
11:12:16.859570,584,196580,145016,125128,194767,524159,524159,-0.458,-1.001,0.014,75.0,0.0,0,0.0
11:12:16.866800,585,195819,144239,124471,193468,524159,524159,-0.621,-0.987,-0.098,75.0,0.0,0,0.0
11:12:16.873786,586,195367,144170,124678,192744,524159,524159,-0.805,-0.931,-0.165,75.0,0.0,0,0.0
11:12:16.880757,587,195333,144343,125040,192980,524159,524159,-0.575,-0.891,-0.018,75.0,0.0,0,0.0
11:12:17.053461,588,195712,145270,126135,193806,524159,524159,-0.219,-0.910,-0.024,75.0,0.0,0,0.0
11:12:17.060766,589,195895,146126,126875,194237,524159,524159,-0.533,-0.777,-0.206,75.0,0.0,0,0.0
11:12:17.068390,590,195886,146291,126864,194210,524159,524159,-0.857,-0.561,0.020,75.0,576.5,25,0.0
11:12:17.074771,591,196246,146789,127101,194013,524159,524159,-0.917,-0.638,0.031,75.0,0.0,0,0.0
11:12:17.082753,592,196574,147305,127462,194062,524159,524159,-0.859,-0.892,0.000,75.0,0.0,0,0.0
11:12:17.254470,593,197118,147631,127164,194522,524159,524159,-0.795,-0.836,0.057,75.0,0.0,0,0.0
11:12:17.261703,594,197446,147009,125566,194868,524159,524159,-0.880,-0.694,0.187,75.0,0.0,0,0.0
11:12:17.268748,595,197206,145968,123992,194770,524159,524159,-1.020,-0.605,0.218,75.0,0.0,0,0.0
11:12:17.275759,596,196780,145002,122991,194479,524159,524159,-0.643,-0.518,0.084,75.0,0.0,0,0.0
11:12:17.282856,597,196463,144705,122600,194267,524159,524159,-0.675,-0.792,-0.351,75.0,0.0,0,0.0
11:12:17.451256,598,196234,144696,122424,194217,524159,524159,-0.988,-0.300,-0.136,75.0,0.0,0,0.0
11:12:17.458091,599,195931,144793,122748,193959,524159,524159,-1.063,-0.528,-0.277,75.0,0.0,0,0.0
11:12:17.466070,600,195986,144409,122797,194129,524159,524159,-0.989,-1.515,0.695,75.0,0.0,0,0.0
11:12:17.473052,601,196242,144758,123632,194605,524159,524159,0.067,-0.672,0.490,75.0,0.0,0,0.0
11:12:17.480032,602,195707,144984,123322,194346,524159,524159,-1.279,-0.818,-0.623,75.0,0.0,0,0.0
11:12:17.655727,603,195284,145105,124008,194294,524159,524159,-0.669,-0.667,0.026,75.0,0.0,0,0.0
11:12:17.663036,604,194326,145491,124228,193850,524159,524159,-0.706,-0.710,0.253,75.0,0.0,0,0.0
11:12:17.670348,605,193862,145034,123741,193396,524159,524159,-0.632,-1.055,-0.135,75.0,0.0,0,0.0
11:12:17.677785,606,193751,144444,123311,193131,524159,524159,-0.624,-0.838,0.151,75.0,0.0,0,0.0
11:12:17.684747,607,193878,144404,123285,193062,524159,524159,-0.760,-0.751,-0.029,75.0,0.0,0,0.0
11:12:17.853294,608,194225,144308,123309,193389,524159,524159,-0.544,-0.752,0.083,75.0,771.3,25,0.0
11:12:17.860388,609,194527,144506,123483,193781,524159,524159,-0.601,-0.703,0.018,75.0,0.0,0,0.0
11:12:17.867927,610,194598,144467,123582,193975,524159,524159,-0.470,-0.838,-0.115,75.0,0.0,0,0.0
11:12:17.874740,611,194260,144513,123673,193947,524159,524159,-0.550,-0.954,-0.187,75.0,0.0,0,0.0
11:12:17.882779,612,193332,144201,123488,193082,524159,524159,-0.749,-0.945,0.170,75.0,0.0,0,0.0
11:12:18.051477,613,192936,143963,123470,192537,524159,524159,-0.648,-0.997,-0.071,75.0,0.0,0,0.0
11:12:18.058459,614,193000,143847,123464,192639,524159,524159,-0.548,-0.992,-0.140,75.0,0.0,0,0.0
11:12:18.065440,615,193095,143829,123545,192792,524159,524159,-0.463,-0.911,-0.008,75.0,0.0,0,0.0
11:12:18.073115,616,193253,143944,123651,192893,524159,524159,-0.536,-0.642,-0.011,75.0,0.0,0,0.0
11:12:18.080080,617,193353,144034,123709,192945,524159,524159,-0.488,-0.706,-0.014,75.0,0.0,0,0.0
11:12:18.251860,618,193790,144452,123980,193467,524159,524159,-0.396,-0.779,-0.024,75.0,0.0,0,0.0
11:12:18.259122,619,193903,144443,124005,193480,524159,524159,-0.416,-0.979,-0.032,75.0,0.0,0,0.0
11:12:18.265720,620,193647,144279,124080,193003,524159,524159,-0.652,-0.913,-0.020,75.0,0.0,0,0.0
11:12:18.273903,621,193625,144244,124353,192587,524159,524159,-0.687,-0.981,-0.092,75.0,0.0,0,0.0
11:12:18.281220,622,193554,144145,124519,192437,524159,524159,-0.695,-0.867,0.071,75.0,0.0,0,0.0
11:12:18.452651,623,193741,144588,124988,192814,524159,524159,-0.717,-0.760,-0.144,75.0,491.8,25,0.0
11:12:18.459954,624,194035,145229,125698,193205,524159,524159,-0.583,-0.784,0.014,75.0,0.0,0,0.0
11:12:18.466765,625,194223,145745,126010,193394,524159,524159,-0.616,-0.701,0.110,75.0,0.0,0,0.0
11:12:18.474748,626,194493,145909,125551,193497,524159,524159,-0.796,-0.670,0.012,75.0,0.0,0,0.0
11:12:18.482250,627,194771,145799,124858,193690,524159,524159,-0.788,-0.663,0.228,75.0,0.0,0,0.0
11:12:18.651736,628,195360,145924,124701,194531,524159,524159,-0.733,-0.890,-0.163,75.0,0.0,0,0.0
11:12:18.658944,629,195752,145966,124591,195264,524159,524159,-0.704,-0.740,0.111,75.0,0.0,0,0.0
11:12:18.665695,630,195496,145570,123867,195073,524159,524159,-0.981,-0.645,0.196,75.0,0.0,0,0.0
11:12:18.673507,631,195504,145071,123148,194933,524159,524159,-0.913,-0.587,-0.004,75.0,0.0,0,0.0
11:12:18.680986,632,195801,144863,122856,195226,524159,524159,-0.537,-0.684,0.127,75.0,0.0,0,0.0
11:12:18.855765,633,195471,144539,122375,194704,524159,524159,-0.797,-0.674,-0.033,75.0,0.0,0,0.0
11:12:18.863919,634,194588,144265,121879,193679,524159,524159,-0.959,-0.527,0.068,75.0,0.0,0,0.0
11:12:18.871741,635,194021,144337,122007,193155,524159,524159,-0.707,-0.620,0.070,75.0,0.0,0,0.0
11:12:18.879736,636,193981,144985,123024,193016,524159,524159,-0.636,-0.740,-0.078,75.0,0.0,0,0.0
11:12:18.886735,637,193912,145677,123918,192806,524159,524159,-0.885,-0.742,-0.129,75.0,0.0,0,0.0
11:12:19.051129,638,193259,145727,124126,192242,524159,524159,-0.910,-0.635,-0.230,75.0,0.0,0,0.0
11:12:19.059094,639,192619,145907,124273,192140,524159,524159,-0.822,-0.758,0.184,75.0,0.0,0,0.0
11:12:19.066597,640,192096,145726,123976,191882,524159,524159,-0.739,-0.651,0.351,75.0,0.0,0,0.0
11:12:19.073714,641,192410,145558,123560,192226,524159,524159,-0.767,-0.726,0.251,75.0,0.0,0,0.0
11:12:19.080696,642,192804,144946,122572,192537,524159,524159,-0.858,-0.642,-0.017,75.0,0.0,0,0.0
11:12:19.256851,643,192722,144293,121948,192354,524159,524159,-0.781,-0.699,-0.156,75.0,0.0,0,0.0
11:12:19.265822,644,192954,144177,121981,192607,524159,524159,-0.434,-0.735,-0.222,75.0,0.0,0,0.0
11:12:19.275790,645,192496,144164,122106,192417,524159,524159,-0.585,-0.642,0.081,75.0,0.0,0,0.0
11:12:19.282771,646,191915,144121,122186,192085,524159,524159,-0.766,-0.798,-0.475,75.0,0.0,0,0.0
11:12:19.290750,647,191005,143829,122162,191338,524159,524159,-0.668,-0.880,0.099,75.0,1008.1,25,0.0
11:12:19.454846,648,190349,143504,122180,190524,524159,524159,-0.622,-0.980,0.003,75.0,0.0,0,0.0
11:12:19.462970,649,190513,143199,122021,190387,524159,524159,-0.634,-0.987,-0.213,75.0,0.0,0,0.0
11:12:19.469751,650,190748,143087,121957,190630,524159,524159,-0.574,-0.876,-0.001,75.0,0.0,0,0.0
11:12:19.476732,651,191084,143509,122270,191101,524159,524159,-0.631,-0.635,-0.187,75.0,0.0,0,0.0
11:12:19.484711,652,191362,143950,122651,191577,524159,524159,-0.525,-0.642,0.052,75.0,0.0,0,0.0
11:12:19.652262,653,191793,144259,122888,192011,524159,524159,-0.510,-0.753,-0.106,75.0,0.0,0,0.0
11:12:19.659699,654,192022,144289,122923,192150,524159,524159,-0.440,-0.995,-0.022,75.0,0.0,0,0.0
11:12:19.666759,655,191752,143998,122855,191716,524159,524159,-0.522,-0.986,-0.016,75.0,0.0,0,0.0
11:12:19.674403,656,191274,143787,123067,191123,524159,524159,-0.606,-0.941,-0.167,75.0,0.0,0,0.0
11:12:19.681599,657,191271,144099,123594,191094,524159,524159,-0.699,-0.768,0.002,75.0,0.0,0,0.0
11:12:19.855625,658,191648,144700,124095,191467,524159,524159,-0.743,-0.727,-0.078,75.0,0.0,0,0.0
11:12:19.863693,659,192271,145289,124357,192018,524159,524159,-0.650,-0.713,-0.058,75.0,0.0,0,0.0
11:12:19.870598,660,192769,145737,124183,192549,524159,524159,-0.708,-0.633,0.069,75.0,0.0,0,0.0
11:12:19.878296,661,193195,146206,123845,192754,524159,524159,-0.957,-0.496,-0.005,75.0,0.0,0,0.0
11:12:19.885643,662,194005,147274,124353,193402,524159,524159,-0.952,-0.535,0.049,75.0,0.0,0,0.0
11:12:20.052395,663,194915,148488,125233,194243,524159,524159,-0.915,-0.761,-0.031,75.0,0.0,0,0.0
11:12:20.059247,664,195720,149432,125957,195464,524159,524159,-0.828,-0.733,0.099,75.0,0.0,0,0.0
11:12:20.066636,665,196626,149451,125658,196876,524159,524159,-1.032,-0.485,0.085,75.0,0.0,0,0.0
11:12:20.073616,666,196945,148800,124944,197706,524159,524159,-0.965,-0.450,0.109,75.0,0.0,0,0.0
11:12:20.081594,667,196710,147916,124153,197969,524159,524159,-0.768,-0.512,-0.081,75.0,0.0,0,0.0
11:12:20.253165,668,195355,146713,122932,196495,524159,524159,-0.847,-0.521,0.116,75.0,0.0,0,0.0
11:12:20.261166,669,193496,145953,122231,194102,524159,524159,-0.938,-0.630,-0.061,75.0,0.0,0,0.0
11:12:20.268423,670,192285,145529,122126,193025,524159,524159,-0.734,-0.616,0.329,75.0,0.0,0,0.0
11:12:20.275626,671,191718,145308,122000,192807,524159,524159,-0.886,-0.776,-0.093,75.0,0.0,0,0.0
11:12:20.282723,672,191482,144734,121561,192994,524159,524159,-0.717,-0.541,0.056,75.0,589.8,25,0.0
11:12:20.452477,673,191195,144254,121104,193327,524159,524159,-0.748,-0.647,-0.069,75.0,0.0,0,0.0
11:12:20.460225,674,190220,143623,120188,192361,524159,524159,-0.982,-0.778,-0.260,74.0,0.0,0,0.0
11:12:20.467556,675,189648,143057,119448,191830,524159,524159,-0.595,-0.862,0.175,74.0,0.0,0,0.0
11:12:20.474440,676,189603,142745,118943,191551,524159,524159,-0.670,-0.752,0.111,74.0,0.0,0,0.0
11:12:20.482368,677,189641,142808,118858,191072,524159,524159,-0.874,-0.531,0.140,74.0,0.0,0,0.0
11:12:20.651792,678,189740,143054,119200,190880,524159,524159,-0.657,-0.698,0.032,74.0,0.0,0,0.0
11:12:20.658747,679,189853,143298,119739,191123,524159,524159,-0.525,-1.001,-0.320,74.0,0.0,0,0.0
11:12:20.665553,680,189447,143239,119976,190770,524159,524159,-0.579,-0.916,-0.095,74.0,0.0,0,0.0
11:12:20.673520,681,188639,142938,120160,189677,524159,524159,-0.648,-0.926,-0.013,74.0,0.0,0,0.0
11:12:20.680501,682,188224,142766,120593,189039,524159,524159,-0.696,-0.971,-0.218,74.0,0.0,0,0.0
11:12:20.852892,683,188063,142694,121005,188929,524159,524159,-0.517,-0.961,-0.028,74.0,0.0,0,0.0
11:12:20.860352,684,188244,143039,121576,189143,524159,524159,-0.490,-0.783,-0.056,74.0,0.0,0,0.0
11:12:20.867693,685,188456,143379,122034,189372,524159,524159,-0.523,-0.676,0.063,74.0,0.0,0,0.0
11:12:20.874601,686,188907,143735,122448,189743,524159,524159,-0.437,-0.765,-0.063,74.0,1105.9,25,0.0
11:12:20.882705,687,189576,144074,122853,190073,524159,524159,-0.382,-0.884,-0.098,74.0,0.0,0,0.0
11:12:21.052393,688,189493,144198,123061,189829,524159,524159,-0.626,-0.825,0.024,74.0,0.0,0,0.0
11:12:21.060373,689,188669,143999,122994,189359,524159,524159,-0.754,-0.902,-0.223,74.0,0.0,0,0.0
11:12:21.069372,690,188332,143985,123287,189323,524159,524159,-0.428,-0.995,-0.075,74.0,0.0,0,0.0
11:12:21.078891,691,188360,144434,123543,189417,524159,524159,-0.626,-0.773,0.064,74.0,0.0,0,0.0
11:12:21.087876,692,188427,144724,123502,189336,524159,524159,-0.864,-0.701,-0.102,74.0,0.0,0,0.0
11:12:21.253230,693,189190,145237,123642,190037,524159,524159,-0.639,-0.746,0.076,74.0,0.0,0,0.0
11:12:21.260730,694,190019,145586,123292,190917,524159,524159,-0.789,-0.636,-0.044,74.0,0.0,0,0.0
11:12:21.267331,695,190565,145712,123010,191403,524159,524159,-0.833,-0.660,0.025,74.0,0.0,0,0.0
11:12:21.274592,696,190160,145409,122379,190951,524159,524159,-0.827,-0.743,-0.195,74.0,0.0,0,0.0
11:12:21.282729,697,188945,144838,121489,189772,524159,524159,-0.827,-0.848,0.093,74.0,0.0,0,0.0
11:12:21.453414,698,188143,144376,120887,188967,524159,524159,-0.969,-0.628,0.201,74.0,0.0,0,0.0
11:12:21.460678,699,187932,144040,120590,188675,524159,524159,-0.845,-0.574,0.071,74.0,0.0,0,0.0
11:12:21.467412,700,187987,143707,120575,188548,524159,524159,-0.658,-0.789,-0.072,74.0,0.0,0,0.0
11:12:21.475576,701,188012,143655,120853,188453,524159,524159,-0.806,-0.629,-0.034,74.0,517.6,25,0.0
11:12:21.482933,702,187993,143755,121235,188435,524159,524159,-0.794,-0.537,0.040,74.0,0.0,0,0.0
11:12:21.652715,703,187934,143895,121585,188443,524159,524159,-0.694,-0.626,0.104,74.0,0.0,0,0.0
11:12:21.660671,704,187849,143984,121789,188483,524159,524159,-0.583,-0.899,-0.171,74.0,0.0,0,0.0
11:12:21.667723,705,187259,143683,121525,188069,524159,524159,-0.694,-0.816,-0.035,74.0,0.0,0,0.0
11:12:21.674570,706,186327,143309,121355,187458,524159,524159,-0.630,-0.822,0.034,74.0,0.0,0,0.0
11:12:21.682670,707,185835,143315,121655,186982,524159,524159,-0.903,-0.777,-0.001,74.0,0.0,0,0.0
11:12:21.853590,708,186012,143291,121991,187125,524159,524159,-0.513,-0.993,-0.138,74.0,0.0,0,0.0
11:12:21.861539,709,186194,143118,121915,187054,524159,524159,-0.724,-0.868,-0.069,74.0,0.0,0,0.0
11:12:21.869556,710,186248,142940,121897,186886,524159,524159,-0.542,-0.683,0.102,74.0,0.0,0,0.0
11:12:21.876561,711,186461,143225,122153,187198,524159,524159,-0.500,-0.694,0.094,74.0,0.0,0,0.0
11:12:21.884057,712,186685,143343,122342,187457,524159,524159,-0.605,-0.760,-0.184,74.0,0.0,0,0.0
11:12:22.053311,713,186826,143432,122498,187686,524159,524159,-0.414,-0.954,-0.139,74.0,0.0,0,0.0
11:12:22.060596,714,186517,143422,122546,187331,524159,524159,-0.578,-1.001,-0.227,75.0,0.0,0,0.0
11:12:22.067981,715,185986,142988,122456,186280,524159,524159,-0.572,-1.108,-0.042,75.0,0.0,0,0.0
11:12:22.074558,716,185902,142934,122628,185972,524159,524159,-0.509,-1.020,-0.128,75.0,0.0,0,0.0
11:12:22.082553,717,186005,142998,122796,186103,524159,524159,-0.556,-0.879,0.001,75.0,0.0,0,0.0
11:12:22.252667,718,186312,143296,123095,186483,524159,524159,-0.509,-0.777,-0.090,75.0,0.0,0,0.0
11:12:22.260644,719,186940,143805,123554,186983,524159,524159,-0.394,-0.750,-0.076,75.0,0.0,0,0.0
11:12:22.268623,720,187453,144113,123703,187325,524159,524159,-0.364,-0.823,0.004,75.0,0.0,0,0.0
11:12:22.276498,721,187587,144196,123757,187294,524159,524159,-0.447,-0.866,-0.068,75.0,0.0,0,0.0
11:12:22.283481,722,187430,144144,123961,186975,524159,524159,-0.596,-0.805,0.006,75.0,0.0,0,0.0
11:12:22.453184,723,187256,143920,124272,186461,524159,524159,-0.620,-0.927,-0.172,75.0,0.0,0,0.0
11:12:22.460736,724,187634,143998,124825,186738,524159,524159,-0.551,-0.990,-0.164,75.0,0.0,0,0.0
11:12:22.467298,725,188112,144258,125389,187219,524159,524159,-0.553,-0.918,-0.047,75.0,0.0,0,0.0
11:12:22.475279,726,188500,144502,125617,187746,524159,524159,-0.747,-0.740,0.055,75.0,0.0,0,0.0
11:12:22.482468,727,188966,144858,125878,188418,524159,524159,-0.717,-0.667,0.040,75.0,0.0,0,0.0
11:12:22.656420,728,189397,145378,126251,188969,524159,524159,-0.641,-0.743,-0.117,75.0,890.8,25,0.0
11:12:22.664320,729,189525,145817,126359,189163,524159,524159,-0.722,-0.608,0.056,75.0,0.0,0,0.0
11:12:22.670872,730,189059,145697,125618,188692,524159,524159,-0.999,-0.679,-0.192,75.0,0.0,0,0.0
11:12:22.678923,731,188890,145314,124584,188388,524159,524159,-0.753,-0.834,-0.013,75.0,0.0,0,0.0
11:12:22.685431,732,188767,144918,123615,188391,524159,524159,-0.734,-0.835,0.110,75.0,0.0,0,0.0
11:12:22.853675,733,188666,144652,123122,188197,524159,524159,-1.049,-0.686,0.047,75.0,0.0,0,0.0
11:12:22.860810,734,188636,144110,122865,188046,524159,524159,-0.783,-0.639,0.225,75.0,0.0,0,0.0
11:12:22.867775,735,188837,143746,122826,188267,524159,524159,-0.760,-0.701,-0.212,75.0,0.0,0,0.0
11:12:22.874902,736,188837,143761,123121,188354,524159,524159,-0.830,-0.480,0.016,75.0,0.0,0,0.0
11:12:22.882873,737,188802,143840,123394,188444,524159,524159,-0.670,-0.720,-0.036,75.0,0.0,0,0.0
11:12:23.058666,738,188747,143883,123625,188400,524159,524159,-0.548,-0.728,0.153,75.0,0.0,0,0.0
11:12:23.066611,739,188591,144051,123865,188243,524159,524159,-0.680,-0.742,-0.035,75.0,0.0,0,0.0
11:12:23.073854,740,188463,144150,124111,188124,524159,524159,-0.780,-0.778,-0.179,75.0,0.0,0,0.0
11:12:23.081106,741,188378,144588,124512,188185,524159,524159,-0.834,-0.631,0.112,75.0,0.0,0,0.0
11:12:23.088302,742,188243,144648,124535,188189,524159,524159,-0.628,-0.983,0.113,75.0,0.0,0,0.0
11:12:23.253206,743,188209,144407,124230,187955,524159,524159,-0.809,-0.815,0.007,75.0,0.0,0,0.0
11:12:23.260553,744,188521,144212,124006,188032,524159,524159,-0.722,-0.865,-0.207,75.0,0.0,0,0.0
11:12:23.267599,745,188816,143965,123765,188261,524159,524159,-0.549,-0.760,-0.079,75.0,0.0,0,0.0
11:12:23.274507,746,188806,143842,123593,188385,524159,524159,-0.584,-0.680,-0.081,75.0,0.0,0,0.0
11:12:23.282254,747,188679,143799,123462,188393,524159,524159,-0.689,-0.666,-0.092,75.0,0.0,0,0.0
11:12:23.454198,748,188491,143842,123493,188354,524159,524159,-0.625,-0.723,-0.041,75.0,0.0,0,0.0
11:12:23.462185,749,188482,143930,123457,188405,524159,524159,-0.604,-0.970,-0.367,75.0,0.0,0,0.0
11:12:23.469289,750,188161,143555,123116,187664,524159,524159,-0.715,-0.952,0.019,75.0,0.0,0,0.0
11:12:23.476590,751,187945,143311,122924,187333,524159,524159,-0.742,-0.937,-0.034,75.0,0.0,0,0.0
11:12:23.484245,752,188213,143123,122756,187517,524159,524159,-0.714,-0.885,-0.258,75.0,1113.0,25,0.0
11:12:23.658866,753,188543,143126,122825,187814,524159,524159,-0.591,-0.775,-0.078,75.0,0.0,0,0.0
11:12:23.667841,754,188890,143475,123145,188150,524159,524159,-0.538,-0.724,-0.156,75.0,0.0,0,0.0
11:12:23.676436,755,189109,143610,123250,188317,524159,524159,-0.514,-0.763,-0.062,75.0,0.0,0,0.0
11:12:23.682833,756,189260,143672,123458,188472,524159,524159,-0.510,-0.772,-0.107,75.0,0.0,0,0.0
11:12:23.691034,757,189242,143835,123833,188469,524159,524159,-0.443,-0.865,-0.056,75.0,0.0,0,0.0
11:12:23.858726,758,189111,144029,124172,188255,524159,524159,-0.436,-0.953,-0.085,75.0,0.0,0,0.0
11:12:23.865882,759,189016,144153,124509,187965,524159,524159,-0.548,-0.977,-0.370,75.0,0.0,0,0.0
11:12:23.873575,760,188939,144325,124653,187519,524159,524159,-0.994,-0.703,-0.007,75.0,0.0,0,0.0
11:12:23.880874,761,189321,144478,124709,187829,524159,524159,-0.861,-0.752,-0.039,75.0,0.0,0,0.0
11:12:23.888260,762,190282,144776,124837,188593,524159,524159,-0.531,-0.911,-0.135,75.0,0.0,0,0.0
11:12:24.054264,763,191192,145274,124908,189436,524159,524159,-0.618,-0.653,-0.004,75.0,0.0,0,0.0
11:12:24.061568,764,191530,145331,124065,189737,524159,524159,-0.961,-0.482,0.089,75.0,0.0,0,0.0
11:12:24.068454,765,191622,145186,123518,189725,524159,524159,-0.836,-0.653,0.108,75.0,0.0,0,0.0
11:12:24.075435,766,191736,145028,122993,189922,524159,524159,-0.832,-0.686,-0.110,75.0,0.0,0,0.0
11:12:24.082415,767,191733,144570,122481,190285,524159,524159,-0.591,-1.043,-0.102,75.0,0.0,0,0.0
11:12:24.254046,768,191106,144012,121587,189817,524159,524159,-1.260,-0.451,0.087,75.0,0.0,0,0.0
11:12:24.261401,769,190609,143713,121132,189183,524159,524159,-0.814,-0.478,-0.098,75.0,0.0,0,0.0
11:12:24.268151,770,190186,143267,120644,188637,524159,524159,-0.539,-0.754,0.029,75.0,0.0,0,0.0
11:12:24.275463,771,189334,143042,120310,187666,524159,524159,-0.853,-0.693,0.046,75.0,0.0,0,0.0
11:12:24.282461,772,189133,143245,120746,187265,524159,524159,-0.882,-0.618,-0.123,75.0,0.0,0,0.0
11:12:24.453699,773,189241,143547,121440,187315,524159,524159,-0.644,-0.707,0.144,75.0,0.0,0,0.0
11:12:24.461676,774,189485,143776,121913,187522,524159,524159,-0.584,-0.940,-0.402,75.0,0.0,0,0.0
11:12:24.468659,775,189489,143746,122105,187505,524159,524159,-0.855,-0.804,-0.092,75.0,0.0,0,0.0
11:12:24.475615,776,188975,143632,122330,187173,524159,524159,-0.762,-0.675,0.112,75.0,0.0,0,0.0
11:12:24.482596,777,188773,143580,122439,187117,524159,524159,-0.658,-0.882,0.093,75.0,0.0,0,0.0
11:12:24.653433,778,188567,143334,122325,186780,524159,524159,-0.771,-0.716,0.103,75.0,0.0,0,0.0
11:12:24.661411,779,188679,143069,122300,186572,524159,524159,-0.736,-0.853,0.027,75.0,0.0,0,0.0
11:12:24.668392,780,189142,142838,122448,186453,524159,524159,-0.461,-0.948,-0.367,75.0,0.0,0,0.0
11:12:24.675373,781,188912,143005,122849,186294,524159,524159,-0.371,-0.691,0.313,75.0,0.0,0,0.0
11:12:24.683383,782,188865,143364,123153,186485,524159,524159,-0.617,-0.774,-0.173,75.0,0.0,0,0.0
11:12:24.859276,783,189043,143419,123251,186739,524159,524159,-0.538,-0.842,-0.082,75.0,767.8,25,0.0
11:12:24.867465,784,189214,143422,123283,186963,524159,524159,-0.578,-0.963,-0.077,75.0,0.0,0,0.0
11:12:24.875443,785,189387,143166,123233,186588,524159,524159,-0.605,-1.044,-0.056,75.0,0.0,0,0.0
11:12:24.882424,786,189629,143034,123290,186549,524159,524159,-0.504,-1.022,-0.057,75.0,0.0,0,0.0
11:12:24.890229,787,189935,143110,123390,187001,524159,524159,-0.568,-0.909,-0.119,75.0,0.0,0,0.0
11:12:25.055916,788,190379,143263,123490,187653,524159,524159,-0.553,-0.774,-0.083,75.0,0.0,0,0.0
11:12:25.063367,789,190749,143352,123441,188148,524159,524159,-0.492,-0.718,-0.027,75.0,0.0,0,0.0
11:12:25.070450,790,190921,143287,123270,188316,524159,524159,-0.406,-0.826,-0.034,75.0,0.0,0,0.0
11:12:25.078020,791,191078,143250,123054,188308,524159,524159,-0.427,-0.864,-0.027,75.0,0.0,0,0.0
11:12:25.084579,792,191145,143149,123034,188054,524159,524159,-0.553,-0.981,-0.021,75.0,0.0,0,0.0
11:12:25.255654,793,191127,143021,123164,187575,524159,524159,-0.740,-0.798,-0.165,75.0,0.0,0,0.0
11:12:25.263366,794,191130,143005,123313,187534,524159,524159,-0.617,-0.882,-0.121,75.0,0.0,0,0.0
11:12:25.269770,795,191311,143253,123605,187764,524159,524159,-0.478,-0.861,-0.147,75.0,0.0,0,0.0
11:12:25.278262,796,191556,143877,124154,188182,524159,524159,-0.578,-0.745,-0.069,75.0,0.0,0,0.0
11:12:25.284758,797,191877,144560,124517,188552,524159,524159,-0.797,-0.630,-0.044,75.0,0.0,0,0.0
11:12:25.454412,798,192368,145252,124831,188969,524159,524159,-0.881,-0.600,-0.104,75.0,1063.6,25,0.0
11:12:25.462410,799,192913,145808,124744,189524,524159,524159,-0.859,-0.593,-0.028,75.0,0.0,0,0.0
11:12:25.469751,800,193251,145665,123763,190182,524159,524159,-0.915,-0.870,-0.159,75.0,0.0,0,0.0
11:12:25.476752,801,193640,145569,122977,190940,524159,524159,-0.749,-0.791,-0.081,75.0,0.0,0,0.0
11:12:25.483728,802,193688,145284,122188,191272,524159,524159,-0.979,-0.711,-0.017,75.0,0.0,0,0.0
11:12:25.653364,803,193440,144746,121282,190968,524159,524159,-0.935,-0.480,-0.089,75.0,0.0,0,0.0
11:12:25.660346,804,193098,144062,120595,190581,524159,524159,-0.734,-0.677,-0.090,75.0,0.0,0,0.0
11:12:25.668325,805,192450,143551,120029,189745,524159,524159,-0.809,-0.605,-0.155,75.0,303.7,25,0.0
11:12:25.675306,806,191518,143436,120131,188686,524159,524159,-0.927,-0.557,0.000,75.0,0.0,0,0.0
11:12:25.682288,807,190934,143480,120701,188062,524159,524159,-0.840,-0.624,0.103,75.0,0.0,0,0.0
11:12:25.856597,808,190787,143448,121145,187937,524159,524159,-0.571,-0.890,-0.117,75.0,0.0,0,0.0
11:12:25.864381,809,190954,143312,121454,188063,524159,524159,-0.646,-0.876,-0.211,75.0,0.0,0,0.0
11:12:25.872531,810,190761,143388,121937,188001,524159,524159,-0.801,-0.554,0.086,75.0,0.0,0,0.0
11:12:25.879931,811,190569,143312,122245,188099,524159,524159,-0.603,-0.943,-0.150,75.0,0.0,0,0.0
11:12:25.887533,812,190450,143109,122322,187848,524159,524159,-0.702,-0.866,-0.057,75.0,339.1,25,0.0
11:12:26.053661,813,190339,143007,122432,187464,524159,524159,-0.824,-0.754,-0.076,75.0,0.0,0,0.0
11:12:26.060644,814,190403,142993,122659,187483,524159,524159,-0.450,-0.765,0.001,75.0,0.0,0,0.0
11:12:26.068217,815,190452,143286,122956,187696,524159,524159,-0.485,-0.714,-0.003,75.0,0.0,0,0.0
11:12:26.075419,816,190418,143420,123116,187715,524159,524159,-0.627,-0.748,-0.140,75.0,0.0,0,0.0
11:12:26.082720,817,190562,143433,123173,187909,524159,524159,-0.498,-0.963,-0.201,75.0,0.0,0,0.0
11:12:26.254058,818,190630,143288,123077,187832,524159,524159,-0.704,-0.970,-0.170,75.0,0.0,0,0.0
11:12:26.261039,819,190513,142934,122895,187588,524159,524159,-0.666,-0.999,-0.022,75.0,0.0,0,0.0
11:12:26.268054,820,190978,142887,122891,188132,524159,524159,-0.514,-1.006,-0.218,75.0,0.0,0,0.0
11:12:26.275997,821,191453,142965,122958,188588,524159,524159,-0.512,-0.973,-0.286,75.0,0.0,0,0.0
11:12:26.283012,822,191685,142948,122955,188720,524159,524159,-0.571,-0.788,-0.053,75.0,0.0,0,0.0
11:12:26.454369,823,191866,143070,122897,188861,524159,524159,-0.533,-0.663,-0.053,75.0,0.0,0,0.0
11:12:26.462460,824,192509,143372,122906,189361,524159,524159,-0.454,-0.758,-0.119,76.0,0.0,0,0.0
11:12:26.469768,825,193275,143784,123089,189961,524159,524159,-0.310,-0.894,-0.069,76.0,0.0,0,0.0
11:12:26.476452,826,193531,143900,123240,189986,524159,524159,-0.549,-0.957,-0.210,76.0,0.0,0,0.0
11:12:26.484237,827,192795,143462,123168,189290,524159,524159,-0.727,-0.913,-0.333,76.0,0.0,0,0.0
11:12:26.654360,828,192173,143384,123516,188623,524159,524159,-0.571,-0.905,-0.058,76.0,0.0,0,0.0
11:12:26.661850,829,192115,143575,124064,188524,524159,524159,-0.511,-0.861,-0.146,76.0,468.0,25,0.0
11:12:26.669797,830,192255,143810,124618,189077,524159,524159,-0.554,-0.749,-0.075,76.0,0.0,0,0.0
11:12:26.676490,831,192807,144340,125329,190059,524159,524159,-0.774,-0.638,-0.113,76.0,0.0,0,0.0
11:12:26.684358,832,193614,144524,125725,190981,524159,524159,-0.910,-0.706,-0.005,76.0,0.0,0,0.0
11:12:26.854381,833,194680,145215,126514,191747,524159,524159,-0.796,-0.738,-0.085,76.0,0.0,0,0.0
11:12:26.862499,834,195654,146043,126987,192477,524159,524159,-0.780,-0.709,-0.037,76.0,0.0,0,0.0
11:12:26.871412,835,196173,146221,126027,192837,524159,524159,-0.931,-0.574,0.060,76.0,0.0,0,0.0
11:12:26.881385,836,195938,145763,124841,192534,524159,524159,-1.116,-0.645,0.039,76.0,0.0,0,0.0
11:12:26.888733,837,195901,145248,123953,192419,524159,524159,-0.858,-0.510,0.166,76.0,0.0,0,0.0
11:12:27.053816,838,195830,144672,123073,192408,524159,524159,-0.871,-0.621,-0.066,76.0,0.0,0,0.0
11:12:27.062044,839,195538,144385,122772,192240,524159,524159,-0.920,-0.469,-0.018,76.0,0.0,0,0.0
11:12:27.068935,840,195524,144611,123237,192485,524159,524159,-0.847,-0.544,0.000,76.0,0.0,0,0.0
11:12:27.076383,841,195563,144696,123556,192599,524159,524159,-0.777,-0.616,0.199,76.0,0.0,0,0.0
11:12:27.083028,842,195754,144745,123714,192948,524159,524159,-0.706,-0.723,-0.130,76.0,0.0,0,0.0
11:12:27.254372,843,195580,144457,123547,192989,524159,524159,-0.879,-0.645,-0.145,76.0,0.0,0,0.0
11:12:27.262331,844,194816,144095,123359,192575,524159,524159,-0.912,-0.680,0.291,76.0,0.0,0,0.0
11:12:27.269723,845,194603,143771,123156,192259,524159,524159,-0.768,-0.906,-0.076,76.0,0.0,0,0.0
11:12:27.277262,846,194713,143269,122949,191952,524159,524159,-0.607,-0.935,-0.096,76.0,0.0,0,0.0
11:12:27.284331,847,194844,143171,123118,191779,524159,524159,-0.761,-0.788,-0.174,76.0,0.0,0,0.0
11:12:27.453398,848,194786,143420,123539,191924,524159,524159,-0.636,-0.576,0.080,76.0,0.0,0,0.0
11:12:27.461573,849,194759,143861,123935,192294,524159,524159,-0.580,-0.627,0.024,76.0,911.8,25,0.0
11:12:27.468965,850,194945,144114,124118,192630,524159,524159,-0.490,-0.777,-0.189,76.0,0.0,0,0.0
11:12:27.476394,851,195014,144265,124173,192828,524159,524159,-0.388,-1.062,-0.235,76.0,0.0,0,0.0
11:12:27.482888,852,194651,143759,123792,192057,524159,524159,-0.732,-0.990,-0.053,76.0,0.0,0,0.0
11:12:27.654315,853,194146,143172,123693,190941,524159,524159,-0.766,-0.984,0.015,76.0,0.0,0,0.0
11:12:27.662114,854,194107,143152,123852,191521,524159,524159,-0.580,-0.961,-0.255,75.0,0.0,0,0.0
11:12:27.669454,855,194345,143278,124027,191994,524159,524159,-0.452,-0.961,-0.156,75.0,0.0,0,0.0
11:12:27.676311,856,194500,143460,124079,192084,524159,524159,-0.512,-0.769,-0.104,75.0,0.0,0,0.0
11:12:27.684156,857,194640,143541,124014,192069,524159,524159,-0.535,-0.645,-0.087,75.0,0.0,0,0.0
11:12:27.854603,858,194872,143729,124000,192220,524159,524159,-0.396,-0.775,-0.112,75.0,0.0,0,0.0
11:12:27.862557,859,195249,143993,124037,192503,524159,524159,-0.390,-0.913,-0.154,75.0,0.0,0,0.0
11:12:27.869995,860,195126,144013,124001,192338,524159,524159,-0.654,-0.858,-0.073,75.0,0.0,0,0.0
11:12:27.876346,861,194902,144075,124289,192078,524159,524159,-0.634,-0.900,-0.231,75.0,0.0,0,0.0
11:12:27.884347,862,194983,144400,124745,192185,524159,524159,-0.519,-0.843,-0.089,75.0,0.0,0,0.0
11:12:28.054547,863,195098,144842,125104,192481,524159,524159,-0.661,-0.777,-0.144,75.0,0.0,0,0.0
11:12:28.062398,864,195283,145245,125411,192827,524159,524159,-0.746,-0.760,-0.205,75.0,528.9,25,0.0
11:12:28.069641,865,195768,145845,125653,193308,524159,524159,-0.766,-0.685,-0.074,75.0,0.0,0,0.0
11:12:28.077029,866,196338,146356,125582,193817,524159,524159,-0.811,-0.634,-0.109,75.0,0.0,0,0.0
11:12:28.084296,867,196658,146308,124725,193960,524159,524159,-0.868,-0.676,-0.018,75.0,0.0,0,0.0
11:12:28.254376,868,196516,145793,123532,193838,524159,524159,-0.946,-0.772,-0.161,75.0,0.0,0,0.0
11:12:28.262118,869,196342,145148,122565,193806,524159,524159,-0.668,-0.865,-0.218,75.0,0.0,0,0.0
11:12:28.269099,870,196061,144465,121611,193612,524159,524159,-0.945,-0.797,0.000,75.0,0.0,0,0.0
11:12:28.276625,871,195701,144194,121306,193084,524159,524159,-1.084,-0.422,-0.064,75.0,0.0,0,0.0
11:12:28.283641,872,195696,143975,121328,193121,524159,524159,-0.618,-0.676,-0.167,75.0,0.0,0,0.0
11:12:28.456377,873,195425,143691,121232,192762,524159,524159,-0.607,-0.766,-0.163,75.0,0.0,0,0.0
11:12:28.463568,874,194900,143330,120981,191936,524159,524159,-0.800,-0.696,-0.175,75.0,0.0,0,0.0
11:12:28.471330,875,194342,142835,120748,191295,524159,524159,-0.757,-0.753,0.136,75.0,0.0,0,0.0
11:12:28.478313,876,194037,142543,120863,190976,524159,524159,-0.558,-0.909,-0.011,75.0,0.0,0,0.0
11:12:28.486291,877,193819,142321,121373,190501,524159,524159,-0.721,-0.900,-0.209,75.0,0.0,0,0.0
11:12:28.658311,878,193484,142514,122390,190159,524159,524159,-0.678,-0.624,0.054,75.0,0.0,0,0.0
11:12:28.665513,879,193013,142441,123072,189713,524159,524159,-0.673,-0.996,-0.082,76.0,0.0,0,0.0
11:12:28.672869,880,193691,142548,124030,189660,524159,524159,-0.293,-1.014,-0.255,76.0,0.0,0,0.0
11:12:28.679863,881,194506,142910,124634,190301,524159,524159,-0.456,-0.978,-0.106,76.0,0.0,0,0.0
11:12:28.687718,882,194974,143166,124961,190472,524159,524159,-0.609,-0.822,-0.073,76.0,855.4,25,0.0
11:12:28.854899,883,195597,143445,125106,191305,524159,524159,-0.496,-0.727,-0.067,76.0,0.0,0,0.0
11:12:28.861880,884,196313,143883,125311,192517,524159,524159,-0.334,-0.838,-0.028,76.0,0.0,0,0.0
11:12:28.869857,885,196728,143930,125326,193288,524159,524159,-0.374,-1.041,-0.255,76.0,0.0,0,0.0
11:12:28.877836,886,196446,143615,125148,192962,524159,524159,-0.703,-0.976,-0.303,76.0,0.0,0,0.0
11:12:28.884817,887,196184,143220,125115,192301,524159,524159,-0.435,-1.091,0.021,76.0,0.0,0,0.0
11:12:29.056303,888,196296,143156,125132,192367,524159,524159,-0.382,-1.006,0.046,76.0,0.0,0,0.0
11:12:29.063905,889,196444,143079,124977,192504,524159,524159,-0.560,-0.958,-0.133,76.0,0.0,0,0.0
11:12:29.071388,890,196683,142975,124761,192664,524159,524159,-0.511,-0.914,-0.291,76.0,0.0,0,0.0
11:12:29.078809,891,197583,143297,124926,193431,524159,524159,-0.172,-0.865,-0.095,76.0,0.0,0,0.0
11:12:29.085293,892,198180,143634,124934,194371,524159,524159,-0.129,-0.833,-0.013,76.0,0.0,0,0.0
11:12:29.256636,893,198946,144311,125164,195358,524159,524159,0.088,-0.950,-0.167,76.0,0.0,0,0.0
11:12:29.264097,894,199091,144378,124983,195473,524159,524159,-0.644,-0.857,-0.032,76.0,0.0,0,0.0
11:12:29.271385,895,198627,143801,124540,195081,524159,524159,-0.821,-0.847,-0.135,76.0,0.0,0,0.0
11:12:29.278642,896,198803,144037,125152,195211,524159,524159,-0.509,-0.897,-0.131,76.0,0.0,0,0.0
11:12:29.285278,897,198787,144266,125578,195186,524159,524159,-0.434,-0.952,-0.114,76.0,0.0,0,0.0
11:12:29.455566,898,199003,144847,126254,195517,524159,524159,-0.344,-0.920,-0.216,76.0,0.0,0,0.0
11:12:29.462515,899,199073,145424,126621,195835,524159,524159,-0.713,-0.694,-0.042,76.0,0.0,0,0.0
11:12:29.469496,900,199229,145525,126374,195963,524159,524159,-0.802,-0.765,-0.202,76.0,0.0,0,0.0
11:12:29.477167,901,199409,145706,126160,196089,524159,524159,-0.886,-0.719,-0.029,76.0,0.0,0,0.0
11:12:29.484239,902,199474,145260,125371,196151,524159,524159,-0.617,-1.086,-0.238,76.0,0.0,0,0.0
11:12:29.655724,903,199529,144706,124374,196293,524159,524159,-0.621,-0.835,-0.030,76.0,0.0,0,0.0
11:12:29.662703,904,199128,144234,123202,195939,524159,524159,-1.088,-0.717,-0.145,75.0,0.0,0,0.0
11:12:29.670682,905,199110,143956,122621,195648,524159,524159,-0.839,-0.660,-0.057,75.0,0.0,0,0.0
11:12:29.678660,906,199162,143584,122219,195760,524159,524159,-0.470,-0.800,-0.026,75.0,0.0,0,0.0
11:12:29.685641,907,198733,143418,122115,195415,524159,524159,-0.762,-0.673,-0.141,75.0,0.0,0,0.0
11:12:29.855508,908,198287,143584,122648,194830,524159,524159,-0.879,-0.712,-0.132,75.0,0.0,0,0.0
11:12:29.862418,909,198206,143925,123414,194854,524159,524159,-0.614,-0.759,0.057,75.0,668.3,25,0.0
11:12:29.870291,910,198138,144062,123817,194701,524159,524159,-0.534,-0.813,-0.127,75.0,0.0,0,0.0
11:12:29.877761,911,198010,143986,124133,194608,524159,524159,-0.485,-1.005,-0.185,75.0,0.0,0,0.0
11:12:29.884330,912,197878,144111,124477,194706,524159,524159,-0.689,-0.787,-0.227,75.0,0.0,0,0.0
11:12:30.056052,913,197467,144354,124755,194643,524159,524159,-1.019,-0.698,0.003,75.0,0.0,0,0.0
11:12:30.063501,914,197489,144254,124850,194711,524159,524159,-0.386,-0.962,0.242,76.0,0.0,0,0.0
11:12:30.070760,915,197800,144224,124947,194853,524159,524159,-0.490,-0.945,-0.034,76.0,0.0,0,0.0
11:12:30.077243,916,197953,144064,124893,194595,524159,524159,-0.850,-0.786,-0.468,76.0,0.0,0,0.0
11:12:30.085211,917,197800,143792,124898,194506,524159,524159,-0.645,-0.742,-0.011,76.0,0.0,0,0.0
11:12:30.092505,918,197659,143981,124972,194833,524159,524159,-0.415,-0.702,0.070,76.0,0.0,0,0.0
11:12:30.465210,919,197542,143920,124799,194834,524159,524159,-0.514,-0.905,-0.160,76.0,0.0,0,0.0
11:12:30.472487,920,197633,143767,124602,194870,524159,524159,-0.510,-0.995,-0.235,76.0,0.0,0,0.0
11:12:30.479188,921,197690,143539,124403,194648,524159,524159,-0.680,-1.003,-0.041,76.0,0.0,0,0.0
11:12:30.487232,922,197621,143272,124250,194388,524159,524159,-0.687,-1.007,-0.195,76.0,0.0,0,0.0
11:12:30.494788,923,197826,143127,124191,194800,524159,524159,-0.510,-1.046,-0.165,76.0,932.1,25,0.0
11:12:30.501791,924,198091,143339,124373,195302,524159,524159,-0.499,-0.934,-0.158,76.0,0.0,0,0.0
11:12:30.509631,925,198531,143762,124650,195796,524159,524159,-0.472,-0.763,-0.105,76.0,0.0,0,0.0
11:12:30.516286,926,198745,144013,124732,196031,524159,524159,-0.460,-0.716,-0.019,76.0,0.0,0,0.0
11:12:30.524231,927,198846,144068,124692,196271,524159,524159,-0.406,-0.789,-0.156,76.0,0.0,0,0.0
11:12:30.531229,928,198913,144257,124904,196385,524159,524159,-0.328,-0.884,-0.079,76.0,0.0,0,0.0
11:12:30.862213,929,198804,144543,125335,196230,524159,524159,-0.505,-0.866,-0.043,76.0,0.0,0,0.0
11:12:30.870189,930,198694,144449,125409,195828,524159,524159,-0.595,-0.938,-0.243,76.0,0.0,0,0.0
11:12:30.878219,931,198660,144704,125839,195664,524159,524159,-0.510,-0.906,-0.036,76.0,0.0,0,0.0
11:12:30.884824,932,198829,145042,126191,195664,524159,524159,-0.572,-0.885,-0.175,76.0,0.0,0,0.0
11:12:30.892934,933,198991,145397,126411,195805,524159,524159,-0.758,-0.766,0.007,76.0,0.0,0,0.0
11:12:30.899917,934,199328,145733,126453,196266,524159,524159,-0.784,-0.741,-0.059,76.0,0.0,0,0.0
11:12:30.907636,935,200051,146041,126289,196846,524159,524159,-0.786,-0.753,-0.042,76.0,0.0,0,0.0
11:12:30.914207,936,200982,146026,125303,197586,524159,524159,-0.727,-0.678,0.032,76.0,0.0,0,0.0
11:12:30.922472,937,201298,145767,124420,198135,524159,524159,-0.882,-0.613,-0.081,76.0,0.0,0,0.0
11:12:30.929918,938,200890,145088,123307,197968,524159,524159,-0.788,-0.811,-0.152,76.0,0.0,0,0.0
11:12:31.259689,939,199732,144101,121945,197052,524159,524159,-0.899,-0.807,0.278,76.0,0.0,0,0.0
11:12:31.266672,940,199441,143780,121335,196838,524159,524159,-1.055,-0.440,0.126,76.0,0.0,0,0.0
11:12:31.274651,941,199536,143552,121104,196914,524159,524159,-0.752,-0.636,-0.102,76.0,0.0,0,0.0
11:12:31.281633,942,199495,143639,121246,196951,524159,524159,-0.737,-0.634,0.011,76.0,0.0,0,0.0
11:12:31.288613,943,199237,143692,121250,196819,524159,524159,-0.860,-0.628,-0.079,76.0,0.0,0,0.0
11:12:31.296252,944,198700,143531,121193,196373,524159,524159,-0.842,-0.679,-0.019,76.0,0.0,0,0.0
11:12:31.303597,945,198309,143576,121502,196156,524159,524159,-0.751,-0.627,0.051,76.0,0.0,0,0.0
11:12:31.310580,946,198042,143563,121609,196028,524159,524159,-0.780,-0.686,0.043,76.0,0.0,0,0.0
11:12:31.317702,947,197761,143570,121888,195873,524159,524159,-0.794,-0.820,0.007,76.0,0.0,0,0.0
11:12:31.457344,948,197313,143428,122031,195746,524159,524159,-0.804,-0.685,-0.100,76.0,0.0,0,0.0
11:12:31.464199,949,196997,143207,121936,195569,524159,524159,-0.877,-0.648,0.066,76.0,0.0,0,0.0
11:12:31.471778,950,196818,143026,121902,195436,524159,524159,-0.720,-0.730,0.106,76.0,0.0,0,0.0
11:12:31.479674,951,196731,143023,121968,195466,524159,524159,-0.690,-0.826,-0.206,76.0,0.0,0,0.0
11:12:31.487587,952,196643,143101,122161,195539,524159,524159,-0.630,-0.768,-0.018,76.0,0.0,0,0.0
11:12:31.494647,953,196448,143259,122369,195528,524159,524159,-0.635,-0.674,0.005,76.0,0.0,0,0.0
11:12:31.861842,954,196233,143460,122665,195532,524159,524159,-0.674,-0.732,0.014,76.0,0.0,0,0.0
11:12:31.869426,955,196233,143625,122857,195679,524159,524159,-0.635,-0.827,-0.133,76.0,0.0,0,0.0
11:12:31.876870,956,196322,143688,122904,195690,524159,524159,-0.639,-0.900,-0.147,76.0,1281.6,25,0.0
11:12:31.883852,957,196153,143433,122686,195281,524159,524159,-0.775,-0.898,0.086,76.0,0.0,0,0.0
11:12:31.891825,958,195994,142931,122414,195197,524159,524159,-0.592,-1.009,-0.212,76.0,0.0,0,0.0
11:12:31.898809,959,195842,142640,122397,195256,524159,524159,-0.510,-1.000,-0.193,76.0,0.0,0,0.0
11:12:31.906229,960,195585,142661,122537,195228,524159,524159,-0.568,-0.879,-0.070,76.0,0.0,0,0.0
11:12:31.913055,961,195445,142822,122779,195273,524159,524159,-0.551,-0.721,0.017,76.0,0.0,0,0.0
11:12:31.921120,962,195610,143130,123048,195556,524159,524159,-0.406,-0.735,-0.003,76.0,0.0,0,0.0
11:12:31.928629,963,195891,143446,123269,195899,524159,524159,-0.380,-0.809,-0.121,76.0,0.0,0,0.0
11:12:32.260348,964,196029,143582,123358,196039,524159,524159,-0.383,-0.892,-0.024,76.0,0.0,0,0.0
11:12:32.267860,965,195727,143492,123412,195652,524159,524159,-0.656,-0.850,0.011,76.0,0.0,0,0.0
11:12:32.274159,966,195553,143368,123718,195203,524159,524159,-0.601,-0.990,-0.278,76.0,0.0,0,0.0
11:12:32.282161,967,195588,143486,124221,194881,524159,524159,-0.506,-0.995,0.030,76.0,0.0,0,0.0
11:12:32.289458,968,195514,143627,124602,194684,524159,524159,-0.652,-0.864,0.003,76.0,0.0,0,0.0
11:12:32.296139,969,195494,143780,124943,194649,524159,524159,-0.645,-0.835,-0.050,76.0,0.0,0,0.0
11:12:32.304164,970,195614,144146,125414,194873,524159,524159,-0.519,-0.755,-0.010,76.0,0.0,0,0.0
11:12:32.311356,971,195668,144607,125696,195125,524159,524159,-0.607,-0.742,0.054,76.0,0.0,0,0.0
11:12:32.319061,972,195699,144818,125500,195183,524159,524159,-0.824,-0.641,-0.071,76.0,675.5,25,0.0
11:12:32.463592,973,195915,144801,124604,195249,524159,524159,-0.784,-0.651,0.053,76.0,0.0,0,0.0
11:12:32.471600,974,196184,144619,123457,195438,524159,524159,-0.772,-0.771,-0.035,76.0,0.0,0,0.0
11:12:32.478114,975,196087,144451,122614,195463,524159,524159,-0.817,-0.814,-0.041,76.0,0.0,0,0.0
11:12:32.486142,976,195394,143896,121744,194953,524159,524159,-0.817,-0.875,0.205,76.0,0.0,0,0.0
11:12:32.493101,977,194985,143396,121079,194581,524159,524159,-1.008,-0.608,0.024,76.0,0.0,0,0.0
11:12:32.499989,978,194853,143187,120844,194496,524159,524159,-0.798,-0.571,0.012,76.0,0.0,0,0.0
11:12:32.867282,979,194596,142869,120835,194226,524159,524159,-0.685,-0.720,-0.188,76.0,0.0,0,0.0
11:12:32.876142,980,194001,143027,121369,194047,524159,524159,-0.735,-0.636,0.003,76.0,0.0,0,0.0
11:12:32.883934,981,193505,143172,121815,193786,524159,524159,-0.788,-0.756,-0.021,76.0,0.0,0,0.0
11:12:32.890914,982,193286,143226,122122,193656,524159,524159,-0.724,-0.697,0.063,76.0,0.0,0,0.0
11:12:32.904139,983,193031,143141,122213,193378,524159,524159,-0.760,-0.744,0.114,76.0,0.0,0,0.0
11:12:32.911548,984,192911,143060,122321,193298,524159,524159,-0.667,-0.855,-0.125,76.0,0.0,0,0.0
11:12:32.918889,985,192715,143037,122591,193292,524159,524159,-0.630,-0.865,-0.123,76.0,0.0,0,0.0
11:12:32.926129,986,192457,143226,122967,193215,524159,524159,-0.773,-0.775,-0.061,76.0,0.0,0,0.0
11:12:32.933493,987,192338,143242,123089,192976,524159,524159,-0.725,-0.857,0.003,76.0,0.0,0,0.0
11:12:32.940537,988,192619,143076,122980,192986,524159,524159,-0.436,-0.978,0.009,76.0,0.0,0,0.0
11:12:33.260578,989,192699,143001,122756,192915,524159,524159,-0.716,-0.781,-0.136,76.0,0.0,0,0.0
11:12:33.267525,990,192429,142905,122646,192816,524159,524159,-0.651,-0.698,-0.070,76.0,0.0,0,0.0
11:12:33.275505,991,192287,142976,122655,193020,524159,524159,-0.428,-0.755,0.052,76.0,0.0,0,0.0
11:12:33.282862,992,192062,143154,122651,193087,524159,524159,-0.456,-0.759,0.085,76.0,0.0,0,0.0
11:12:33.290266,993,191640,143074,122406,192872,524159,524159,-0.530,-1.017,-0.111,76.0,0.0,0,0.0
11:12:33.297098,994,191447,142680,121982,192216,524159,524159,-0.631,-1.124,-0.318,76.0,0.0,0,0.0
11:12:33.305075,995,191036,142247,121734,191384,524159,524159,-0.540,-1.090,0.049,76.0,0.0,0,0.0
11:12:33.312207,996,190888,142207,121789,191366,524159,524159,-0.512,-1.104,-0.146,76.0,0.0,0,0.0
11:12:33.320121,997,190916,142296,121911,191396,524159,524159,-0.474,-0.931,-0.238,76.0,0.0,0,0.0
11:12:33.458011,998,191207,142574,122002,191644,524159,524159,-0.484,-0.640,0.038,76.0,0.0,0,0.0
11:12:33.465097,999,191579,142754,121975,192121,524159,524159,-0.339,-0.725,0.031,76.0,0.0,0,0.0
11:12:33.472607,1000,192059,143449,122435,192876,524159,524159,-0.133,-0.799,-0.258,76.0,0.0,0,0.0
11:12:33.479884,1001,192273,144117,122758,193330,524159,524159,-0.338,-0.874,-0.128,76.0,0.0,0,0.0
11:12:33.487203,1002,191919,143722,122265,193047,524159,524159,-0.619,-0.887,-0.086,76.0,0.0,0,0.0
11:12:33.494069,1003,190914,142976,121677,192345,524159,524159,-0.637,-0.993,-0.092,76.0,0.0,0,0.0
11:12:33.862647,1004,189938,142830,121672,191627,524159,524159,-0.585,-0.962,0.036,76.0,0.0,0,0.0
11:12:33.869629,1005,189768,143235,122169,191510,524159,524159,-0.534,-0.881,-0.229,76.0,1287.8,25,0.0
11:12:33.878031,1006,190411,144535,123335,192296,524159,524159,-0.615,-0.762,-0.114,76.0,0.0,0,0.0
11:12:33.885284,1007,190978,145482,123879,192864,524159,524159,-0.742,-0.700,-0.063,76.0,0.0,0,0.0
11:12:33.892651,1008,191600,145796,123415,193189,524159,524159,-0.817,-0.686,-0.126,76.0,0.0,0,0.0
11:12:33.899239,1009,191554,145242,122194,192902,524159,524159,-0.959,-0.806,0.034,76.0,0.0,0,0.0
11:12:33.907485,1010,191180,144593,121377,192712,524159,524159,-0.792,-0.861,-0.105,76.0,0.0,0,0.0
11:12:33.914084,1011,191095,144379,121094,193245,524159,524159,-0.753,-0.680,0.075,76.0,0.0,0,0.0
11:12:33.922084,1012,190761,143913,120443,193191,524159,524159,-0.989,-0.588,-0.132,76.0,0.0,0,0.0
11:12:33.929729,1013,190242,143556,120085,192742,524159,524159,-0.729,-0.509,-0.176,76.0,407.6,25,0.0
11:12:34.261979,1014,188919,143316,119796,191583,524159,524159,-0.774,-0.710,-0.029,76.0,0.0,0,0.0
11:12:34.269223,1015,187489,143157,119715,190310,524159,524159,-0.897,-0.604,0.033,76.0,0.0,0,0.0
11:12:34.276512,1016,186849,143536,120335,189884,524159,524159,-0.858,-0.596,0.074,76.0,0.0,0,0.0
11:12:34.283509,1017,186713,143783,120852,189742,524159,524159,-0.754,-0.727,0.048,76.0,0.0,0,0.0
11:12:34.292485,1018,186577,143797,121237,189619,524159,524159,-0.696,-0.883,-0.168,76.0,0.0,0,0.0
11:12:34.299466,1019,186435,143581,121444,189539,524159,524159,-0.789,-0.679,-0.059,76.0,0.0,0,0.0
11:12:34.307482,1020,186184,143604,121700,189663,524159,524159,-0.822,-0.586,-0.250,76.0,0.0,0,0.0
11:12:34.314463,1021,185771,143549,121628,189491,524159,524159,-0.736,-0.884,-0.026,76.0,0.0,0,0.0
11:12:34.321444,1022,185446,143121,121194,188997,524159,524159,-0.704,-0.917,-0.013,76.0,364.5,25,0.0
11:12:34.457425,1023,185488,142623,120751,188651,524159,524159,-0.745,-0.759,-0.228,76.0,0.0,0,0.0
11:12:34.464883,1024,185429,142330,120567,188489,524159,524159,-0.641,-0.666,-0.047,76.0,0.0,0,0.0
11:12:34.472714,1025,185373,142388,120617,188579,524159,524159,-0.591,-0.708,-0.093,76.0,0.0,0,0.0
11:12:34.480113,1026,185331,142475,120720,188554,524159,524159,-0.632,-0.747,-0.058,76.0,0.0,0,0.0
11:12:34.487414,1027,185303,142393,120745,188484,524159,524159,-0.549,-0.952,-0.286,76.0,0.0,0,0.0
11:12:34.494470,1028,185427,142173,120699,188210,524159,524159,-0.599,-0.968,-0.224,76.0,0.0,0,0.0
11:12:34.862437,1029,185259,141651,120559,187279,524159,524159,-0.636,-1.045,-0.050,76.0,0.0,0,0.0
11:12:34.869053,1030,185195,141334,120570,186994,524159,524159,-0.622,-1.042,-0.289,76.0,0.0,0,0.0
11:12:34.878836,1031,185058,141387,120819,187047,524159,524159,-0.500,-0.947,-0.033,76.0,0.0,0,0.0
11:12:34.885641,1032,184933,141839,121186,187145,524159,524159,-0.502,-0.657,-0.032,76.0,0.0,0,0.0
11:12:34.895614,1033,184853,141985,121177,187106,524159,524159,-0.465,-0.709,-0.016,76.0,0.0,0,0.0
11:12:34.904590,1034,185016,142125,121139,187208,524159,524159,-0.269,-0.825,-0.058,76.0,0.0,0,0.0
11:12:34.912693,1035,185335,142454,121330,187414,524159,524159,-0.125,-0.978,-0.096,76.0,0.0,0,0.0
11:12:34.920671,1036,185230,142544,121406,187162,524159,524159,-0.672,-0.787,-0.081,76.0,0.0,0,0.0
11:12:34.927652,1037,184652,142120,121401,186435,524159,524159,-0.675,-0.916,-0.175,76.0,0.0,0,0.0
11:12:34.934633,1038,184509,142373,122092,185746,524159,524159,-0.773,-0.677,-0.227,76.0,0.0,0,0.0
11:12:35.262207,1039,184608,142725,122759,185843,524159,524159,-0.406,-0.849,0.187,76.0,0.0,0,0.0
11:12:35.270387,1040,185124,143662,123680,186657,524159,524159,-0.447,-0.848,-0.290,76.0,0.0,0,0.0
11:12:35.277278,1041,184567,143697,123342,186333,524159,524159,-0.910,-0.637,0.056,76.0,529.9,25,0.0
11:12:35.285024,1042,184200,143925,123121,186217,524159,524159,-0.810,-0.739,-0.016,76.0,0.0,0,0.0
11:12:35.292733,1043,184040,143405,121792,186113,524159,524159,-0.937,-0.949,-0.200,76.0,0.0,0,0.0
11:12:35.299715,1044,183707,142816,120298,185758,524159,524159,-0.930,-0.718,0.309,76.0,0.0,0,0.0
11:12:35.307028,1045,183665,142331,119376,185646,524159,524159,-0.846,-0.779,-0.008,76.0,0.0,0,0.0
11:12:35.314036,1046,183619,141967,119047,185464,524159,524159,-0.771,-0.639,-0.113,76.0,0.0,0,0.0
11:12:35.322124,1047,183299,141845,119003,184978,524159,524159,-0.814,-0.594,-0.008,76.0,0.0,0,0.0
11:12:35.464029,1048,183073,142138,119460,184698,524159,524159,-0.788,-0.607,0.003,76.0,0.0,0,0.0
11:12:35.473006,1049,183139,142575,120170,184769,524159,524159,-0.655,-0.636,0.044,75.0,512.8,25,0.0
11:12:35.481367,1050,183092,142639,120487,184598,524159,524159,-0.729,-0.665,0.028,75.0,0.0,0,0.0
11:12:35.489028,1051,182795,142322,120465,184325,524159,524159,-0.818,-0.827,-0.123,75.0,0.0,0,0.0
11:12:35.496928,1052,182205,142083,120599,183776,524159,524159,-0.773,-0.759,0.052,75.0,0.0,0,0.0
11:12:35.504010,1053,181910,142271,120876,183805,524159,524159,-0.679,-0.777,-0.083,75.0,0.0,0,0.0
11:12:35.862951,1054,181570,142265,120811,183503,524159,524159,-0.729,-0.782,0.079,75.0,0.0,0,0.0
11:12:35.870928,1055,181445,142095,120631,183166,524159,524159,-0.758,-0.871,-0.020,75.0,0.0,0,0.0
11:12:35.878906,1056,181588,141833,120368,182951,524159,524159,-0.630,-0.911,-0.202,75.0,0.0,0,0.0
11:12:35.886885,1057,181724,141645,120226,182971,524159,524159,-0.348,-0.875,-0.011,75.0,371.2,25,0.0
11:12:35.893867,1058,181659,141883,120287,183025,524159,524159,-0.739,-0.618,-0.008,75.0,0.0,0,0.0
11:12:35.901843,1059,181651,141942,120249,183171,524159,524159,-0.707,-0.685,-0.054,75.0,0.0,0,0.0
11:12:35.910053,1060,181948,142004,120294,183601,524159,524159,-0.390,-0.980,-0.231,75.0,0.0,0,0.0
11:12:35.922939,1061,181529,141795,120091,183254,524159,524159,-0.705,-0.799,-0.003,75.0,0.0,0,0.0
11:12:35.930356,1062,180576,141316,119800,182434,524159,524159,-0.702,-0.965,-0.112,75.0,0.0,0,0.0
11:12:35.937051,1063,179977,141104,119743,182014,524159,524159,-0.572,-1.012,-0.105,75.0,0.0,0,0.0
11:12:36.264992,1064,179636,141099,119790,181838,524159,524159,-0.551,-0.968,-0.166,75.0,0.0,0,0.0
11:12:36.271687,1065,179733,141312,120048,181852,524159,524159,-0.489,-0.883,-0.125,75.0,0.0,0,0.0
11:12:36.279946,1066,180031,141629,120329,181953,524159,524159,-0.463,-0.734,-0.009,75.0,0.0,0,0.0
11:12:36.287483,1067,180498,141979,120635,182226,524159,524159,-0.418,-0.764,-0.034,75.0,0.0,0,0.0
11:12:36.293993,1068,180787,141919,120674,182275,524159,524159,-0.392,-0.919,-0.004,75.0,0.0,0,0.0
11:12:36.302137,1069,180469,141814,120780,181896,524159,524159,-0.576,-0.771,0.049,75.0,0.0,0,0.0
11:12:36.309692,1070,179847,141675,120866,181376,524159,524159,-0.728,-0.857,-0.112,75.0,445.7,25,0.0
11:12:36.317228,1071,179748,141948,121374,181255,524159,524159,-0.537,-0.840,-0.238,75.0,0.0,0,0.0
11:12:36.324983,1072,179591,142455,122006,181287,524159,524159,-0.685,-0.819,0.164,75.0,0.0,0,0.0
11:12:36.332391,1073,179656,143133,122590,181493,524159,524159,-0.513,-0.885,-0.104,75.0,0.0,0,0.0
11:12:36.457349,1074,179692,143478,122407,181394,524159,524159,-0.836,-0.573,-0.039,75.0,0.0,0,0.0
11:12:36.464822,1075,179383,143183,121384,181069,524159,524159,-0.782,-0.919,-0.188,75.0,0.0,0,0.0
11:12:36.472802,1076,179104,142452,120126,180779,524159,524159,-0.572,-1.052,-0.191,75.0,0.0,0,0.0
11:12:36.480326,1077,178354,141903,119193,180129,524159,524159,-0.861,-0.720,0.292,75.0,0.0,0,0.0
11:12:36.487787,1078,177970,141667,118657,179458,524159,524159,-1.076,-0.710,-0.030,75.0,0.0,0,0.0
11:12:36.659309,1079,178186,141469,118563,179381,524159,524159,-0.594,-0.772,0.008,75.0,0.0,0,0.0
11:12:36.666670,1080,178370,141742,118982,179618,524159,524159,-0.456,-0.776,-0.098,75.0,0.0,0,0.0
11:12:36.673612,1081,178030,141935,119371,179248,524159,524159,-0.852,-0.696,-0.092,75.0,0.0,0,0.0
11:12:36.681465,1082,177672,141962,120004,178788,524159,524159,-0.782,-0.736,0.090,75.0,0.0,0,0.0
11:12:36.688718,1083,177524,141980,120626,178572,524159,524159,-0.494,-0.863,0.077,75.0,0.0,0,0.0
11:12:36.859260,1084,177422,141965,121202,178083,524159,524159,-0.569,-0.993,-0.155,75.0,0.0,0,0.0
11:12:36.866801,1085,177112,142115,121943,177409,524159,524159,-0.715,-0.781,0.000,75.0,0.0,0,0.0
11:12:36.873558,1086,177111,142397,122327,177846,524159,524159,-0.549,-0.844,0.013,75.0,0.0,0,0.0
11:12:36.881262,1087,177274,142164,122259,178044,524159,524159,-0.377,-1.079,0.011,75.0,0.0,0,0.0
11:12:36.888534,1088,177469,142093,122253,177851,524159,524159,-0.626,-0.896,-0.121,75.0,0.0,0,0.0
11:12:37.057850,1089,177542,142056,122156,177775,524159,524159,-0.811,-0.717,-0.175,75.0,0.0,0,0.0
11:12:37.065306,1090,177819,142083,122058,178323,524159,524159,-0.510,-0.737,0.027,75.0,854.9,25,0.0
11:12:37.071947,1091,178275,142461,122182,179330,524159,524159,-0.379,-0.729,0.107,75.0,0.0,0,0.0
11:12:37.079409,1092,178265,142301,121921,179690,524159,524159,-0.697,-0.969,-0.199,75.0,0.0,0,0.0
11:12:37.087703,1093,178179,141756,121710,179663,524159,524159,-0.452,-1.096,-0.341,75.0,0.0,0,0.0
11:12:37.463136,1094,177509,141456,121705,178757,524159,524159,-0.689,-0.971,0.238,75.0,0.0,0,0.0
11:12:37.470443,1095,177494,141521,121946,179154,524159,524159,-0.683,-1.102,-0.145,75.0,0.0,0,0.0
11:12:37.477831,1096,178044,141752,122303,179810,524159,524159,-0.391,-1.015,-0.423,75.0,0.0,0,0.0
11:12:37.484929,1097,178520,142106,122483,180090,524159,524159,-0.500,-0.816,0.123,75.0,0.0,0,0.0
11:12:37.492984,1098,179176,142196,122491,180196,524159,524159,-0.510,-0.759,-0.131,75.0,296.4,25,0.0
11:12:37.500391,1099,179702,142280,122393,180422,524159,524159,-0.378,-0.772,0.152,75.0,0.0,0,0.0
11:12:37.507724,1100,179862,142571,122470,180399,524159,524159,-0.313,-0.913,0.026,75.0,0.0,0,0.0
11:12:37.514890,1101,179997,142970,123009,180388,524159,524159,-0.412,-0.953,-0.076,75.0,0.0,0,0.0
11:12:37.521934,1102,180103,142964,123336,180635,524159,524159,-0.614,-0.841,-0.143,75.0,0.0,0,0.0
11:12:37.529983,1103,180108,142700,123503,180868,524159,524159,-0.503,-0.925,-0.283,75.0,0.0,0,0.0
11:12:37.659133,1104,179833,142613,123684,180814,524159,524159,-0.429,-0.908,0.095,75.0,0.0,0,0.0
11:12:37.667025,1105,179792,142745,123889,180972,524159,524159,-0.518,-0.837,-0.086,75.0,0.0,0,0.0
11:12:37.674029,1106,180085,143114,124336,181283,524159,524159,-0.614,-0.796,0.045,75.0,0.0,0,0.0
11:12:37.681767,1107,180468,143735,124718,181624,524159,524159,-0.718,-0.758,0.048,75.0,0.0,0,0.0
11:12:37.688821,1108,180815,144263,124874,181725,524159,524159,-0.889,-0.735,-0.130,75.0,0.0,0,0.0
11:12:37.857078,1109,180788,144705,124847,181776,524159,524159,-0.819,-0.659,0.178,75.0,0.0,0,0.0
11:12:37.864925,1110,180890,144752,124269,182072,524159,524159,-0.774,-0.877,-0.133,75.0,0.0,0,0.0
11:12:37.872068,1111,181004,143934,122508,182392,524159,524159,-0.709,-0.847,0.048,75.0,0.0,0,0.0
11:12:37.879238,1112,180871,143091,120861,182378,524159,524159,-1.177,-0.504,-0.058,75.0,0.0,0,0.0
11:12:37.887067,1113,180410,142190,119750,181864,524159,524159,-0.782,-0.669,-0.011,75.0,0.0,0,0.0
11:12:38.058360,1114,179622,141783,119443,181245,524159,524159,-0.551,-0.749,0.016,74.0,0.0,0,0.0
11:12:38.065809,1115,178946,141652,119517,180646,524159,524159,-0.955,-0.644,-0.075,74.0,0.0,0,0.0
11:12:38.073056,1116,178585,141754,120233,180100,524159,524159,-0.830,-0.648,0.247,74.0,0.0,0,0.0
11:12:38.080594,1117,178453,141939,121179,179823,524159,524159,-0.536,-0.795,0.246,74.0,731.5,25,0.0
11:12:38.087364,1118,178479,142182,122083,179612,524159,524159,-0.789,-0.811,-0.312,74.0,0.0,0,0.0
11:12:38.465904,1119,178602,142524,122884,179739,524159,524159,-0.548,-0.693,-0.025,74.0,0.0,0,0.0
11:12:38.473289,1120,178644,142887,123270,179999,524159,524159,-0.628,-0.816,0.180,74.0,0.0,0,0.0
11:12:38.480649,1121,178417,142575,122934,179470,524159,524159,-0.764,-0.927,0.049,74.0,0.0,0,0.0
11:12:38.488248,1122,178641,142069,122690,178861,524159,524159,-0.678,-0.996,-0.001,74.0,0.0,0,0.0
11:12:38.494897,1123,178865,141949,122748,178488,524159,524159,-0.562,-0.897,0.006,74.0,311.7,25,0.0
11:12:38.502993,1124,179009,142016,122816,179101,524159,524159,-0.432,-0.751,0.015,74.0,0.0,0,0.0
11:12:38.510490,1125,178871,142134,122729,179614,524159,524159,-0.690,-0.656,0.012,74.0,0.0,0,0.0
11:12:38.518086,1126,178859,142094,122627,179890,524159,524159,-0.464,-0.938,-0.049,74.0,0.0,0,0.0
11:12:38.524768,1127,179064,142097,122593,180043,524159,524159,-0.403,-1.029,-0.257,74.0,0.0,0,0.0
11:12:38.532588,1128,178723,141732,122461,178983,524159,524159,-0.627,-1.034,0.119,74.0,0.0,0,0.0
11:12:38.657104,1129,178717,141688,122828,178157,524159,524159,-0.507,-1.004,-0.080,74.0,0.0,0,0.0
11:12:38.665082,1130,179170,142050,123162,178713,524159,524159,-0.411,-0.783,-0.122,74.0,0.0,0,0.0
11:12:38.672683,1131,179674,142546,123268,179841,524159,524159,-0.497,-0.702,-0.131,74.0,276.6,25,0.0
11:12:38.679991,1132,180101,142952,123132,180834,524159,524159,-0.432,-0.769,-0.072,74.0,0.0,0,0.0
11:12:38.686877,1133,180278,142967,122718,181144,524159,524159,-0.428,-0.947,0.043,74.0,0.0,0,0.0
11:12:38.858248,1134,179985,142384,122320,180592,524159,524159,-0.577,-0.925,-0.109,74.0,0.0,0,0.0
11:12:38.867099,1135,179476,142363,122549,179894,524159,524159,-0.710,-0.884,-0.024,74.0,0.0,0,0.0
11:12:38.876073,1136,179331,142791,122982,180050,524159,524159,-0.571,-0.946,-0.227,74.0,0.0,0,0.0
11:12:38.883053,1137,179362,143301,123358,180341,524159,524159,-0.615,-0.803,-0.166,74.0,0.0,0,0.0
11:12:38.890036,1138,179260,143478,123401,180404,524159,524159,-0.769,-0.740,-0.126,74.0,0.0,0,0.0
11:12:39.057673,1139,179354,143533,123598,180310,524159,524159,-0.646,-0.760,-0.072,74.0,0.0,0,0.0
11:12:39.064653,1140,179787,143962,123914,180571,524159,524159,-0.660,-0.723,-0.115,74.0,0.0,0,0.0
11:12:39.072631,1141,180336,144466,123958,181045,524159,524159,-0.877,-0.641,-0.101,74.0,0.0,0,0.0
11:12:39.080611,1142,180984,144713,123481,181422,524159,524159,-0.910,-0.611,-0.012,74.0,0.0,0,0.0
11:12:39.087590,1143,181289,144478,122458,181598,524159,524159,-0.964,-0.604,-0.140,74.0,0.0,0,0.0
11:12:39.463230,1144,181071,144027,121749,181656,524159,524159,-0.703,-0.775,-0.037,74.0,0.0,0,0.0
11:12:39.470210,1145,180249,143487,120863,181356,524159,524159,-1.033,-0.668,-0.116,74.0,0.0,0,0.0
11:12:39.477190,1146,179526,142865,120112,180886,524159,524159,-1.027,-0.498,-0.027,74.0,0.0,0,0.0
11:12:39.485170,1147,179033,142279,119444,180679,524159,524159,-0.638,-0.666,-0.070,74.0,676.9,25,0.0
11:12:39.492149,1148,178350,141808,119050,179975,524159,524159,-0.754,-0.713,-0.263,74.0,0.0,0,0.0
11:12:39.500447,1149,178108,141850,119469,179588,524159,524159,-0.732,-0.687,-0.005,74.0,0.0,0,0.0
11:12:39.507164,1150,178262,142102,120077,179584,524159,524159,-0.734,-0.654,-0.003,74.0,0.0,0,0.0
11:12:39.515038,1151,178415,142268,120534,179546,524159,524159,-0.812,-0.771,-0.115,74.0,0.0,0,0.0
11:12:39.522106,1152,178653,142336,120832,179569,524159,524159,-0.764,-0.703,-0.041,74.0,0.0,0,0.0
11:12:39.529153,1153,178711,142444,120926,179721,524159,524159,-0.760,-0.624,0.014,74.0,0.0,0,0.0
11:12:39.658729,1154,178744,142462,120910,179772,524159,524159,-0.853,-0.713,-0.009,75.0,0.0,0,0.0
11:12:39.665877,1155,178748,142102,120699,179576,524159,524159,-0.678,-0.887,-0.016,75.0,0.0,0,0.0
11:12:39.673546,1156,178899,142010,120684,179517,524159,524159,-0.604,-0.740,-0.159,75.0,0.0,0,0.0
11:12:39.680790,1157,178977,142313,120927,179637,524159,524159,-0.639,-0.620,-0.068,75.0,0.0,0,0.0
11:12:39.688197,1158,179123,142754,121312,179819,524159,524159,-0.813,-0.576,-0.039,75.0,0.0,0,0.0
11:12:39.857917,1159,179333,143246,121786,180033,524159,524159,-0.803,-0.673,-0.116,75.0,0.0,0,0.0
11:12:39.865862,1160,179701,143379,121805,180286,524159,524159,-0.704,-0.795,-0.019,75.0,392.7,25,0.0
11:12:39.872876,1161,179605,143055,120951,180059,524159,524159,-0.983,-0.636,0.188,75.0,0.0,0,0.0
11:12:39.880845,1162,179535,142782,120389,180250,524159,524159,-0.883,-0.687,-0.104,75.0,0.0,0,0.0
11:12:39.888470,1163,179637,142454,120012,180464,524159,524159,-0.741,-0.791,-0.043,75.0,0.0,0,0.0
11:12:40.058276,1164,179264,142160,119574,180116,524159,524159,-0.846,-0.645,-0.050,75.0,0.0,0,0.0
11:12:40.065257,1165,178583,141819,119169,179395,524159,524159,-0.896,-0.615,-0.131,75.0,0.0,0,0.0
11:12:40.072264,1166,178165,141734,119506,179099,524159,524159,-0.612,-0.719,0.161,75.0,0.0,0,0.0
11:12:40.080249,1167,178023,141846,119964,179069,524159,524159,-0.651,-0.763,-0.126,75.0,0.0,0,0.0
11:12:40.088221,1168,177850,141752,120066,178892,524159,524159,-0.793,-0.828,-0.053,75.0,0.0,0,0.0
11:12:40.472462,1169,177768,141479,119901,178729,524159,524159,-0.631,-0.894,-0.014,75.0,0.0,0,0.0
11:12:40.481601,1170,177735,141208,119722,178574,524159,524159,-0.536,-0.943,-0.004,75.0,444.7,25,0.0
11:12:40.488582,1171,177730,141050,119708,178322,524159,524159,-0.622,-0.960,-0.038,75.0,0.0,0,0.0
11:12:40.496559,1172,177757,141009,119771,178102,524159,524159,-0.603,-0.820,-0.120,75.0,0.0,0,0.0
11:12:40.504539,1173,177937,141343,120292,178179,524159,524159,-0.448,-0.755,0.046,75.0,0.0,0,0.0
11:12:40.511519,1174,178409,141915,120901,178586,524159,524159,-0.391,-0.745,-0.027,75.0,0.0,0,0.0
11:12:40.519496,1175,178738,142034,121059,178905,524159,524159,-0.484,-0.747,0.033,75.0,0.0,0,0.0
11:12:40.526478,1176,178960,142110,121102,179188,524159,524159,-0.513,-0.934,-0.062,75.0,0.0,0,0.0
11:12:40.533886,1177,179288,142207,121179,179260,524159,524159,-0.485,-0.999,-0.080,75.0,0.0,0,0.0
11:12:40.542138,1178,179241,142127,121124,178734,524159,524159,-0.557,-1.024,0.045,75.0,0.0,0,0.0
11:12:40.657691,1179,179220,142210,121234,178436,524159,524159,-0.679,-0.907,-0.018,75.0,0.0,0,0.0
11:12:40.665640,1180,179291,142495,121488,178584,524159,524159,-0.687,-0.701,0.114,75.0,0.0,0,0.0
11:12:40.672620,1181,179793,142792,121700,179080,524159,524159,-0.588,-0.782,-0.185,75.0,0.0,0,0.0
11:12:40.679601,1182,179992,142946,121622,179229,524159,524159,-0.617,-0.782,0.071,75.0,0.0,0,0.0
11:12:40.687359,1183,179663,142959,121351,178787,524159,524159,-0.728,-0.874,0.030,75.0,0.0,0,0.0
11:12:40.858500,1184,179493,143130,121320,178301,524159,524159,-0.835,-0.804,-0.136,75.0,0.0,0,0.0
11:12:40.865322,1185,179553,143170,121223,178491,524159,524159,-0.630,-0.658,0.215,75.0,0.0,0,0.0
11:12:40.873098,1186,179471,143020,120827,178477,524159,524159,-0.903,-0.795,0.005,75.0,0.0,0,0.0
11:12:40.880441,1187,179699,142858,120491,178516,524159,524159,-0.763,-0.786,-0.019,75.0,0.0,0,0.0
11:12:40.887788,1188,179962,142889,120397,178740,524159,524159,-0.504,-0.780,0.069,75.0,0.0,0,0.0
11:12:41.058930,1189,180013,143052,120462,178775,524159,524159,-0.922,-0.559,-0.120,75.0,0.0,0,0.0
11:12:41.066327,1190,180051,143170,120683,178506,524159,524159,-0.854,-0.590,0.079,75.0,818.0,25,0.0
11:12:41.073309,1191,180741,143755,121442,179055,524159,524159,-0.528,-0.770,-0.010,75.0,0.0,0,0.0
11:12:41.080548,1192,181458,144722,122494,179897,524159,524159,-0.548,-0.918,-0.047,75.0,0.0,0,0.0
11:12:41.088220,1193,181756,144978,122536,180361,524159,524159,-1.179,-0.369,0.291,75.0,0.0,0,0.0
11:12:41.260563,1194,181803,144420,121624,180514,524159,524159,-1.043,-0.640,-0.034,75.0,0.0,0,0.0
11:12:41.267771,1195,182045,143440,120321,180916,524159,524159,-0.595,-0.959,-0.103,75.0,0.0,0,0.0
11:12:41.274766,1196,181159,142444,119101,180257,524159,524159,-0.770,-0.694,0.103,75.0,0.0,0,0.0
11:12:41.281866,1197,179795,141375,117828,178832,524159,524159,-1.024,-0.696,-0.188,75.0,0.0,0,0.0
11:12:41.289820,1198,179488,141031,117887,178451,524159,524159,-0.683,-0.769,0.194,75.0,0.0,0,0.0
11:12:41.460159,1199,179461,141029,118398,178443,524159,524159,-0.627,-0.824,0.069,75.0,0.0,0,0.0
11:12:41.467470,1200,179508,140848,118828,178234,524159,524159,-0.670,-0.870,-0.107,75.0,0.0,0,0.0
11:12:41.474714,1201,179842,141032,119463,178322,524159,524159,-0.509,-0.879,0.015,75.0,0.0,0,0.0
11:12:41.482569,1202,180117,141202,119973,178264,524159,524159,-0.490,-0.952,-0.033,75.0,496.6,25,0.0
11:12:41.490921,1203,180397,141226,120296,178097,524159,524159,-0.433,-1.005,-0.057,75.0,0.0,0,0.0
11:12:41.658391,1204,180900,141328,120673,178235,524159,524159,-0.392,-0.922,0.001,75.0,0.0,0,0.0
11:12:41.665793,1205,181324,141487,120951,178650,524159,524159,-0.445,-0.760,0.055,75.0,0.0,0,0.0
11:12:41.673361,1206,181695,141686,121157,179344,524159,524159,-0.397,-0.731,-0.057,75.0,0.0,0,0.0
11:12:41.680650,1207,182124,142003,121334,179981,524159,524159,-0.326,-0.769,-0.047,75.0,0.0,0,0.0
11:12:41.688139,1208,182338,142241,121345,180325,524159,524159,-0.326,-0.930,-0.108,75.0,0.0,0,0.0
11:12:41.858779,1209,182258,141963,121041,180137,524159,524159,-0.502,-1.026,-0.111,75.0,0.0,0,0.0
11:12:41.867768,1210,182057,141405,120690,179239,524159,524159,-0.513,-1.216,-0.018,75.0,0.0,0,0.0
11:12:41.875731,1211,182038,141588,120952,179092,524159,524159,-0.555,-0.949,-0.051,75.0,0.0,0,0.0
11:12:41.882724,1212,182148,141993,121326,179819,524159,524159,-0.598,-0.747,0.041,75.0,0.0,0,0.0
11:12:41.890353,1213,182544,142486,121884,180602,524159,524159,-0.432,-0.791,-0.096,75.0,0.0,0,0.0
11:12:42.059134,1214,182792,143027,122333,181085,524159,524159,-0.484,-0.797,-0.044,75.0,0.0,0,0.0
11:12:42.066464,1215,182657,142977,122205,180886,524159,524159,-0.738,-0.791,0.018,75.0,0.0,0,0.0
11:12:42.073732,1216,182492,142250,121702,180315,524159,524159,-0.597,-0.995,-0.235,75.0,0.0,0,0.0
11:12:42.081138,1217,182234,141999,121576,180036,524159,524159,-0.830,-0.817,-0.116,75.0,0.0,0,0.0
11:12:42.088543,1218,182218,142299,121732,180358,524159,524159,-0.440,-0.962,-0.021,75.0,0.0,0,0.0
11:12:42.259326,1219,182200,142503,121447,180446,524159,524159,-0.999,-0.662,0.127,76.0,0.0,0,0.0
11:12:42.266306,1220,182377,142548,121137,180565,524159,524159,-0.792,-0.818,-0.067,76.0,689.2,25,0.0
11:12:42.274286,1221,182837,142228,120752,180490,524159,524159,-0.412,-0.933,-0.174,76.0,0.0,0,0.0
11:12:42.282263,1222,183035,142284,120421,180602,524159,524159,-0.470,-0.705,-0.077,76.0,0.0,0,0.0
11:12:42.289244,1223,182901,142588,120259,180451,524159,524159,-1.082,-0.416,0.038,76.0,0.0,0,0.0
11:12:42.459216,1224,183185,143054,120702,180891,524159,524159,-0.752,-0.616,-0.130,76.0,0.0,0,0.0
